[
	{
		"rt": 1163,
		"stimulus": "Hello world!",
		"response": "arrowright",
		"trial_type": "html-keyboard-response",
		"trial_index": 0,
		"time_elapsed": 1163,
		"internal_node_id": "0.0-0.0"
	},
	{
		"device_id": "hwHRArfI4JNphaPMmxOWjfVOj28kOnIhaRcd1k7Bkjg=",
		"trial_type": "initialize-microphone",
		"trial_index": 1,
		"time_elapsed": 116468,
		"internal_node_id": "0.0-1.0"
	},
	{
		"rt": 875,
		"stimulus": "<p>You will be <b>speaking</b> your thoughts as they flow out in a stream-of-consciousness. Speak as though you were thinking aloud in free form. Don’t worry about being grammatically correct or speaking in complete sentences unless it feels natural to your thought process.</p><p>You will be see an audio recorder on the next page to share your thoughts. A timer at the top of the screen will let you know how much time you have left. Try not to stop speaking unless your thoughts have stopped flowing.</p>",
		"response": 0,
		"trial_type": "html-button-response",
		"trial_index": 2,
		"time_elapsed": 117343,
		"internal_node_id": "0.0-2.0"
	},
	{
		"rt": 5118,
		"stimulus": "<p>Recording now...</p>",
		"response": "T2dnUwACAAAAAAAAAADPMiZAAAAAAOtBI/sBE09wdXNIZWFkAQI4AYC7AAAAAABPZ2dTAAAAAAAAAAAAAM8yJkABAAAAN615/QE3T3B1c1RhZ3MPAAAAbGlib3B1cyB1bmtub3duAQAAABQAAABFTkNPREVSPU1vemlsbGExMTUuME9nZ1MAAAAtAAAAAAAAzzImQAIAAAAm2r2xGP/x/9P/Jf8c/x7/qf8Y/xr/Hf8d/xT/3/xzEqB/JrysUsDW8hfduD2l2P7tVD3Sr4xz7d98+uWptweqXfoyjzUKU5RRoTatUXfycTUcodIppHHiVMZzsldRnEUJBGyR57ACni5aZcG86W9F/Z40YKjUBVmq7naFUm79+00O+dUMR46Vgwaa25fcHLL6OYt+Qi99QpfxA5Y+prC8HSH2phV/bH6hccIMTOS+QPyMCrtmG5ePwS+M5RXsaetn+WLH50zC1Ovhqh6Hmi15EGnVfVw1+uz5p2kh7OgmFafQSUOiqvew6lZLbdhoR0fGDntvc3EDQkewOhKOKWY4bKCoIkmtmynsVE/RyynsVMTa24qG/MTa3vH6Z8+ZWyUJ5DIKGRgdw+KLRLp5pD/ekFKDlYWDHbp3s/DzIknHWyrejzdTx4zhSgOttv4Iy1ca1gXS53lqXW4Ph9scVzO/KZWkEEJ1OXDKLAnjFqKe4KpupuZIhWmZ56UmnI2scGnvk3OrILps7np6lBaNT4EjA0MegTiomkuEyYdisWy/x2Ua7GuSaneS2K3s6HGC7OYyTqpm/sCR+FdgfYQUYbA6NnCDD+NbDRXtfuruCVSKeTVsCp851OKTDi6RjVkPPOWjejcoatHbti68AZWWGAeYL6nKcUGgP+4WLlLWaSwf++fzzdxL6PgwOx9ZkaP839dIymwzlGxtp60pJ3h3M5uS2q16bE3TWvP9/yb2O1TfdfNNMHfGeDvAOWQhiESI+LnKtqm/duRo4P3fAMVoti85Ec3+q5i7lLpynHXizPxWwoP7hAaMrf7jDAO441smlCtmOtJbRYRr6VkENQyhl+xJ5/D2vJeiFg5wiPUY+5BdhtJN5DcZ1/lRx0fdV6WggrhLCOrY/4v4zcdVZHj4MRyWUEGta/+WEEJm26BgAeE378JAm6nkXY1OyqUfmvMT9tE2NCqYvRwrelK1zRccAA1Ek/vOE+8HjHXqdkAAZgLMDjZLa+3+GZjIQGeqT3n+V1v1Sh5QWElmH5MuiIvMLD5V3kdwylaZRP1wVJtzkWPqZPmANUYTPWbm7SXVUQNfWP9VH1y6hlx814V5ix9KxQ1dhlzfU8/WQyOCUbtVey5ntNxLMOhgd1xOtHJzopVYhwJ0E0HMmo4uri682cIA7rfkoo2D/GEb1hPqIfpKn2J3NL/W5jJYODC4s5yKHQ8e3ClXilGqNcZlfUV9BbxCnoIinA1thA8dpJRuhfjGs85ynoyGSkDRjAXk/3iyAVxnYgkB/jTSayyQVymoaWqcUA7ktzW3NhF0VEJJgElqZDpk/BXzKJhfkGqrDSWJ5yUlEI32q4SEJmctrD5TWt+rn161WW6WhF3dMAqOX/eD/gCVL/xc8yfHzu97weddlMEsv7Fm4sAkhw4O+9X0glm41xK/x+iuE3V6IYnHyQ/CaYlbAgMERrnvJa+guGNIaLM/AzpTrYGjZdeMru5z+L62YwLr2WqQty5WOzxsudqViVAU3CIY8LzmXFily+jIasT/2CD+sEt2ZDvjxMhfGOxzvwPeeCGXB8xcaz/33jEn/NcxlhdWP1fkgN60u6hfB5THt3KLYfLMPYKdgb6MRJxDd3ROsjloKMPL6LInsA4H6KHd48EARbVKy1zKbL22jo2Y7EMyqDHBCLJOJ36TSOX84j27A7shh+owfZBHbkOaGJI0pAZEgPxBjWtCR6kbRsGMDwQJdAwrbjiiN89GIGLCUtYJgu0t8zyYEp8D9US1A5ldSpNLcMqcSNb5UDGtjllVW7CMjigLt6U5+zNDi/xDVRw/h0TKJdjU8eGvuYBfEcvmsFyDZjRpkxnHQbZ0hWWO6H/oksKizEmEiCTcISwPlU15SFpWuNhbF3FfrncU9Hi54kvPRZ4/LSbAeNTSCuEXzZEf4b7nGG9KIZOB8MJJfPwW6k9y1fQ0+uKCldGmDYOzdT0BOmdHeMcrVi92RFI3rryTOlz3wNfH5twf9V8l+E5urieyEftwtW05e185i3qRpaKCy1EDVmgqnButdKeWOJZO0SdE1Xlpj1T6xSyEQi588aMD6kB9LlOdXNgrqj78QaTmMfqkOUHirVXU/oSVia06qoRIxLz/5GKPbbUfS5trs/IwQUc2g87VZNOqOMBNuRrpu/mXtNpmYk9numwjDZs9SpLyrqp3Yt9qINd/VPXHJgr5jGo6CAKKglinzGAejy8+Yl86pyK5ncvSxVXKqmJ5AB/9eict0c3LSHuiYaYHy6tWv5Y15u/enD2ebyuvxwPUlWfmkYezm4SIOdwsdmaEjvbmPF7tXx7W7VUh9qEhkQIQI3ot+/22l3ge7y5EI0iM8ozWx11D8Zr1ApG38UOtU3+X32z5M24xV61CmsujAnA6skjCodPLBLZEkFI3VLhURQU5MPET5gmsgwFQ95e9InZ+Wk3MwqUqXSuENKiudGlXBFYVHn1pcW78c3N54/U81ze2kwONi7FWLy7tZ1U5wzR+1mCjhIiBxEk/f9v07qCdQTzxNAAVM4ghOtG/MnRPI3G/yQJR7yii74L53jO+f+/61dux0FKPJIZ8SbnbHQC6wse73WlruxoFo65Oh/XbrG4w9jKjolTvJFIlwIut6S8NPhGszKThOdlfNnmtQK+V2w+0HDoUOhgTsbGqHAfCYPAZ01shqxBodRJ06za1xL7l7JbVQYsr5o2HJ/3IsL0iDZQ6H5ywaJjgQSI94IrK1MftK/mIq2bQ7cAFujdOapGBWHPTa9ZwapaLTDbwYkRTRkJ0xkXrEFBvVyENvDkHXuymryYqaH4I+YkqjY0WndENX53p3N4IiLi2kEfDb3HFJW1OAA+RwLZmg1vEf9MJa3Cl06qwxUkzntbcKHZUr27oasCiIFUl9aP4PKScrq8ChOBxZi9wYCREJAjmPF63RdwdX6Zq7a1jzBdtajMEWFlSC1PT+ctRUmtKRhqd/5QNya+I8GMsIpHmv4rqvoT0O+eyiZ7xCGVt//f1B2mnU5MZSANZ6mdS41Czby2etrt2/BX2QEgzql05wlFoMKycaVBRBOS3MuiqvQ0BbSwDt2m9d9flYfz/W5Vjm2Vy9G7buVLJyuNogqlt0rCLWMlQa9L3QHmnvAzLrWjpTt1aE42zeN4zaN5B3TOymhWUKvsNij9iIpdDopEckSF+HDrflOjNcJP9LEGbqI2KTd8l9NWy9S5ZEEPpoHkLtZwIb4xWNAEA22EAZ1TdKPlatYckGKoIfiVEotR9FbmJKbyChcH2e6qVd9dlM4fIIVr7p7tYE/L5XSQRS+72zfo+ZxfAd5easdvR1rBWFjq68gdJjd3jeeE+4Q+fSC9Tx/gbTXgRp0Uft3VsFlZILtJLdek7DnN7qbyLMariPtruConGvcRD5naM3tJ2/EF/flNCGPOiF+AzPtF36PbCEXtrsoH6K5s8t++UEz+9pa2IMt9aQMEFELLa3eGNRwoI0b+Lcdi7kUkbfVhG4/SKohH461JFecQrw/5CBa7WAv6tlNCk/OrQg0HfdR+dxPScqe1Ew6epC1xgXqmnvd5VhaYm8qa60wOhhJsBr1JKFyoCUusEKMuW/rp7/wczU7w5HmwOge75lbxCkxZjIoyMonfzYNiJK0GspTxMbxk1EffjizNtsQnfbIXQdDehKYAFQT1KSfyCO9Uc9YS82EphY1wqC0UA5A2brpsTuGNwpxsqN77uQBc4kk/Y1R91OJjuRu3TlelURvTbOgrAn7I+NlttoPQbXiIBJIH+sU969GwjvMK3pL38QjiPjJeRd9bIiLeagwm69oyw+c/xg9qE7vqJgiGTIKgovFCV10gl09stvQn5zKGDnd1YmlFi4tLXJkgS8Oplu5fmGSBMTJ42xvrb2Tkx7DaxaZk/pESiR2qObO8QmBgnDtpREuUq9MwfDGxdjOeU8bN8zilBO9+HI4lEWpDUWvyoRa9XPWTBIO9DclSGr6j8BDADMIRqJEe2Kwfn3uqQgiY0G/PerOTLJL0+nu1DXuL6EB7UiiR1wO+QFvxs0IgID/4ujgqkJp4DH1aqZWd5Y0Zz2QbvLyX/i2MhDBDZOgUPARQ5adcV6v4rpxGFnJ2Hb8OcZatEH6XOMlSYNiqoF+Nd+FWzi0HRgzp9rPwlaKN8Fu3wKUqR/ItSN/wBIviYhBE70IQwVskRFxU39rGkB0y3763r0TNCyaoAOl79bCLrzyYqtfGW5UFv9klv6stgDtB9qKuHHDyAadMpLlQKsnnQ809WMpvyUs2pzvyUmKdQ1jUzyOIFsOs+3PG2xwt7uD0hPPf3biXcNxTNyjHBcQABomCCVtAOfT+tXTWq0Q9/cFQue9+7qjh/9N6kZB/RokS+LnBYMn9KejwXkMtF0njeAuzsuKVWssbFE3e5PnUKImB2htQgW3713+Y/WZQJu9oEZt0l8hWNXclU5UMOdfABVk1me6BAJDF4SKmq0rEgPpdtXasFdwDF8wtwxRgerYksR3vVaJp3cYD4+b1eRdJ1X/6SFnZgv+qdjaZKCghK2HLbLzHa/EGoGH47U/8c0/YE5KT1Do9MDxNWrHjPDPMGOzOCzLAq9qgPyFi+9zY+/NUn0dzJ5/3LXKuTl9uBcKKBKkdzd5QLur/vWT0DXF6Bpmht/Or4/FVLfV5iNvNLSc/fl+BnjFnWMsJRJli1a0n+kTaSX0+34RcbiPkuPUBlblx9i6gIQUFWvFw3nhWFcgBk5EBdk4+GucNdsVGxMzFk8SXAyljsC39/8266nreor1T+QgqNQ97uhGsva2jzoa7AtyGEZBQJqsv4+NaMGn6b+8UF0e2QG+NYYgSeO6uLZtX8zQ2XRgpwjnpZDaYN3XExcJICvgtfr3j9d9fY+2kWhx4EBM+IGYuYq22LXhrdpU8xS4uP4cz8b/8iHWOQYXz20kMYGF1CYJa1URadG7ZRBhU+qX17HgygDwE9WDodin/yyPT879kSCr8rftIxo6XOHXirB03DAbGcLQgbMuDkRUgnZvEZquuGFh5AOaMCYleie/19fEhlPZJAa+0BPkW2uBMGHl4g3V6o8XkSQmjyPBw30qQDOT++tDXaYB3bPrTG8jPM4WS9m4UAUPaGcHmj9RpCq+90Z1e/Y0saycqs+LAOsEYln76XboyKaUaAoan7D6d3MkTKxW5ZTo/8cu0IbF2GmjEwBLlZ7x9yQLBnmmwFFjVkVlnwJXS5tBX+FKly0M8VdxjvtjZu9NBNxJ8daspEhUWVfeOoVCMgoLOqt9Y5qyufGeTVday3IwflSA4Mh1tYKj0ijnhbls+64cWoTcJbpOJGjQZf0xM5hCLnrUT6VtKjAb+NeF1l+LJa9JbqKdLybg2u4mnqAA7DUtUY9xDLcRn+j4zydYJfzA+XklFIm+e+TDOwBCPdOdkpQzm3kOcxp4/oNOB0Y1LrYXcfD5aDWR63HiPqBZetAF82PwDa5+upuhEV3D+1sQJ5sicT3Rk/VIKGGndCZR+YEcRgqrE+B9OUBx34Fl3128O/mhknlz9QvhWgqA5NES/Gj0wMvbL8T2dnUwAAgGEAAAAAAADPMiZAAwAAALruf1cc/w3/Ef8d/xH/D/8e/0L/Qv9C/0L/Qv9C/0L/QvzwHHdrWY0ss0GwrApp4l/BVO3Bc40vV4HfNiPUF0YYzV9+MGt4NfdsxeIioN1kO2WQYpc/0bPnFJSURQrjv5DinABhUsb1wQQb08uWH8JG1dDtuNEVXpCPlWAMF8TPJT1P06FMwyb0bn4qFSjYjpY7SMZyUmBr4H2STzysSDCbiaZ9TO4+lYAeNBhGOJ/diCBYZ9graHurqMpIzBGud9jL1VJJ3y1YcruOdGVYvsXfXL6OafInTJVoe4Gm+X8TPVRO7rrC9A5pllPPkMWJ9VwknyB7YKMqcogExC2ww4f8xO9dLu6g8MbSOJ8VGkd4LGdsNFt2Ma/1YBqEu16espXTZRTlMfz1uYrVlAn8ATvFWPNt4087nWyA2fxjZdD+CnITwdEg9xBLyfnPbczrO2NKGppprXunIPz7WuejOs9xh9L8KwPtDtO0P9XuLl1x1QOx5nv+jAZGnXPcaWMoPZPR//GT743EVUi1z4KhE9aCzYAArs+kYMnz6meVZn0gsDxMrnEyxgV6+HwWQ71bm0swAxUakDStJccFBKJid7jzz4yY5cHxbEdfsd5q5s8oed5HzDq5u/5XAueP4TcljkmLLV7I9iOHFMpxDgvwn27DhQM6Tc2xVa32smJdOZR/Awm3c62P+Vo/6X467osMllsGqpTisxUFKl0q9EWC7xM3Ab+gheKjXmBTI0k9TZ6Uoqyuoic0QMUrY6tf0/xTu9ak3L7WZsYb1ETnEj/+xp/6Jiuj/kE2iNJq3vKyxziXt30SqyG4mdcHqI1c/iRJvFC/pvY5LLUkax9GUXNlaa74mUcgdcSZ0NYzGslbpIc6cGBVgBgQCqIc62fAXB/qqoRMZmdW3kLfbGzaxfRet1JLKjhDhdYQv+7Wh7aAYY8kFqqWDlZ4dLxrqNIFnxv3ffzt3XtulgY75UL51QXPLI6dS0jGLVzA3cZJDz/0WqluYuhVm3y8v+dNZFHMgfDGs33KBoTf7U8IDXj80KN51RHBqrTtb4c3P0RMxjRFwhAJCFD1tj6m2XMkfxWgYi/mGTxMHMLW9t4RI1mkPx1GX4R4IPUxoG3lGCTN23JmMLpvJ4V/pjxvDQk0/AJYeuVsU79WS0LHkhtdgv6q9S4cQxwSlwFt9wMrZs+08q26AE+cm44jWMS/ApN4t/JwtsF/wDlwfytyNgs4A64M4vZaR5iWKcIUCOBUVRZU0m7eQ0ADBjTPvwcub/OKPMKoLcJpDwOods5p6PZcHMJ2yCnQEXv87a9YvVhe0Pm3PDf/fG5tyx1gjtFYPvm+KKUuo3K2dn67RZydrCOvuPeJMg9WGmDws7Gytut/+i8LZ9EY78dV3X89C2Z1RJZVPhhGUU8/i5igD410bk5xrNcSIAF4FFQHW57LAGY+vuzus/AnD7sStlKrBxEomoF1ZxhbEVBjxAcIUTiezedo+w1XqJd6SJ3fVTqqI4O7C8L8QWXXX5fPqQG+zbxKbOnm9BmZ07TP/ihjQ9N6fG2kjSLBCMG4hj/qDlBqA3g2UELnfRW6/ThdOZQ1T/7m85UfaEQVa7j6ShDxeSs7c1m6txxwKF/GtSi6560As+8A0FDEvol7TSYa9c6MgAHAdYMzgk0ENZdpiw14p/16n51lqQKj9AeDWdUlCcHve5zC3kQD7Aoiz7spMXDCsrvD6iWk4c1Y2JhKRupXHSPWnElsfwA5u9lEpc4HtLaRJs1S7bUPUHSEePVgVocvyo5rAioODhnGD9k8ASfkJjljXRzJDgcZti9pMAxVdERr7BQO6wXeX/D982eVtGcskTLzHM2RGSEgZuqmHQLcQldNCHX8Alov9rKp9yrtYcBh/gzf717LY9gIAdONLpQzN3ICfXGtI58eB9/b9mbo8QTJ74ribX9Lf1MtndAA5TK3a+64EaGaFaq67nAP8zeXus2gSPdTtpBCzhsdFv/aG4ubXzmqAyqaegJwj7bPGqaS4owK9/OIe4Zbyf2HKehpG4Zv8EbjJZKXs7HcLkAmjpA/tCltjepYQEMCfJIccEebM/FOrd7mH19ocTJcCul9VCux1KPKuJlLD61SztJboIgzTPm3BHPSVCQ8AOqRCRWROU30FIkmmDbqwBJaRy3Hs7n6gguD5Z6TlNawBHHVQ7xRgMBR8OpwF14NMb+tf3yGXv2welNnPFO9SrYygwb2SmyWWKTV8fxv6RgOp/HmfdL8QkPhsTgEWb4Tg4S+yxwHXc+myuuLsVpYKb8lWt2nPQb6kdfHvvtDPDfk3QNnXRmtz4ESuql0f02ZzERewQvrWwQlVBGPN0yHgKv1Cc5to/uM4BHqYylXw+mGPVSyoWmoLClpFHiWzKhHXeJ1ucfqD4urfnHkCUjdr+7wriKIOb6VUgcitMArTYQxEYNxPo7U+pxKjv4Ju0oFwXoVT2slBRfcynfHoa3B2pSqwyhAp4sELGTkKwPBY++rjFrxo8z8NOAkfPwyY5LNHKEA+aVNggPE+0z73DTfLTX4BfgyF5rTBrbzREZDZzveBcKd7f3GWNOyqJ3ccoAkvJAkZB2TIQsJssJVxQ3VCASLDruv6y1Wjl5f2czrJHOnmnwlfjecfBjDGaMa/adhvcJdlZDGJyCKouXmAB3CiYqvSoAjQf78PlLvUnnFkMb0QJ6g1eg1nSik0Ib9C3XW0e6kXisoz6t1RYU04QTs2KQGI6JVjRwLRA/5IpTkv1e/QInWjdSLHmD8XM+oMCxcn5LpTmhTam2pUv0/F/UYh1EFyGsBMp+mLBhwUQjEs4plehkv2LHxixFcY3wwfKdnS7QcV1Syos8vUuhVPPtv4CxfhFzTGEJ1DdXFUH9234rPHmnSCmWCKjlgiLzGTj7ZM+xD4Y00HMeeEuypFBQ29gANNcTIN/h28X8hqEZZSZB/ev65kq9Fm/FT4eJmtpHX5Q8yGYy9onIZcsBWwKUK9LDftfX0KZ974Mtd36iDVteIFnii8Ew6tOfqtIUp7SzW8UT6MISsH5xnofJty55tJgbhLi72JrxhHeAgKaQ2/m1kufhMKWqbG2mG2Jzba95XvHEOoShbhg78FdIyS5LpdX4u+a+OmbA6Lhim0MxQL65bNis77pHq3+Expu5KVY5nA430Rp0AOOEbnIRL5zKE02A/SvsAtcYHexfFOAMOobHMwd2/tILwJMMkDSLN0K08wuATRc+9VwV5CRUtG7AjWA/rHxmDYV6UzHynxA3glUbkSl/DhxFZIp5y/Bup8ZgDZHz6BO5WcbQWOF2sRfp8dM/+ByMvtw9YeY7N+PtN+IqYCePlGQy5vgmnRAoDNcTP8rGq707LVfnrLh+09aQKaRkrO0twohQggQRqd7kr7BaCEv6lexXumTdTbY7+X0uGSuuiS/Qv+r9J14811EmiXhb1jNRieOKcIZmzH9y7mt5nAdgslksyrFAeQU/D2emIqTNT3wNCyus7fGTFWzKCdxy8Ke/MS8vMS8Dto67h9ZvydeRwQECT/9X8E/pQiKwZ9D/QjFaDNcBh1FBfvbpGrCwPeLt/+59yXo1VJgePP1e24l8I/R8q1xjLAgYvlGO/rhlU9smohLoi60IUf1aaxAObci0UZ5oWy31ESksbLUn2BzPVVYDyWcOZ2yRQDIG+N/DML9+abaWPTWclrbFzE5uagSkVmZpgdus20j2PxxVs4dZsBxUpETPkl9ZhInnm386LetrBmLfTZXqncOfA1yo4BWasqSgbVYzzAKUH/COjb9zbaIUhNcwBoBWxyFCIQTw9S64sZgmqnnX5/OA92Dvr+wGQYIg5Quh/+8vC6mB7yr+YE9ew281Lo4CyRAEbUxoaPJU8Dwl6tcPdPNlCfqeCymqhAfBcaamn9CaltxihJsB241PltGbnnMRUd8OIKTKuYMJn6gYmb1By2TI1YZjHnIW7v3ypOQn8QWnVJa5OyhgQzkadTxniEMe80OJSn0/pAAyw4zxb9HwONwC0Ooaf2iOz5ykQt3r2Xg023G3Xk/m4FVIFXvG8YxM9arNWj5jX92O62ykrJlLxEZeSMSkV/pjg8mkIlbpX9ua0+YXdEDpp4K5L8lnsB45YBY3P8ehGvoPlrv4Rz5SVX2s8B2M2lvBkd6oQQZEZGYsrq8RLPPd5UfiPkzNSm8CgZG/OemNCdl1T5LD0VgsBKwoHYjzr+x2K8CinIbQOLITFZX6mx6AkiRxd8xU1naUG7ZWHSE6YT+DXx09YbygR5CqCmA466veFjB2xX843Kn1G7oVumWkZXi5OsIKA1brcWKOlQwdqRD7Qna1HMGUaRGFsAn6dSlb22OP6JO9bO4kwYrAXqP/W61f04d7fceEjjtWFc+dmPNkp5lb9Mgn8AUsMPg+V1Xbw0Ep4qgBM9jqc3jYv15V4bxa5D0CV0xHzetG8M1/Nfvsa6HnkBGynWPG/mI2cPUsNT9QNb1l3n//RdGlcjJdbBS6tdi5v9lPaRDZe4BHgKoUv9QAEuufzslMxo+ZaImX+1BoMKuXsaRtxqYB+YucQT4Uz6BCqFVlrX5NE5Jj8YPnuiZQUeKIAL9BE8hCmkCUyf4j/cbY6Brcp+njbNjxq5MdjekgswlQZ7rvf1OEPeuEIESwE7JNoLK7eBny4aaF/H5iDw5E5sPt4l2uBqM/U1u+ZzTuoOrovNzkPNVf5ucaL6N8b9Pn2AgJBYtCLnMBuqIFi8+ZfDLNvoZinYNlW/6bdCP77roiM0a3759FW+8gtb3x0Dck4tkIs6u5mlsS+kpVdi2LGbEsSsUuJu5gZtqJwZepdluT8Ff751vpKmuAWbJ87jfZp/T1L9l+8khR/sliz8ma7pH9ciMzu5unKjUzUkG0HuioSEM7J24mY/7ccz16/2BawwYi7nf35nJ+mIrsFGurFjRd1uRt47qhJYtZtER4CFEcMXGaIlHfc5qD/cHmgVPcn9zjGo7QnFBwKidURwkNiOaXwvQAWAfPuwvudIV/c8QpRkeYzqBnOfxriGGKDuM64VFoorLSmuJc0vxB8CayFoEz0zceEgFqpaVx+xqmdKsvwOgFwNvXD1AOasNPHDMPZhy3vrgAZ+0Bij9Z0FA2kv/Ku4gQadjxblj6RXjX6aAcZIFv+FaGZ270kVqMBQzeVgeXzGciF9PNAUm0XGpbvYdUh9QaJSK7436Anzw+0mx9kDVV53QlNHBloi1A6GmnxfKxyXcITEG64Yf3hwkSDiq382m58hXji+8jojhjTcfgkZ/A1fGT7hZjK+BoZwTX1z+5JzWsGbRAy4k3z6lTuyvAeh5NXcrJ2ea45Zm1IG8RCbAbOcfBFzEkYUozhE636iUs22bOb43FK+9qLaqbXYCR/QRixIH4mh+Z/7fW8Go2FCuSZjtPap/MS8owKut4xIz4pb32RounR2Vf36fvp1Gi+WDAj0G1hx8okI6S0TV9O4WwIjbb4/CHD2ArcKHTiNAUnGhIzLvXgof5yK1qRtHF4s7RNMEm3iZ0dL7PpMibDnVuxS/bDqrXYKUoeF9GmrSpSTk7NPKwADD2TZ06n7uP/6uzqMPdoFNwQjCUuZY6arupalOWNx9rJaWqcD6uHBDL5QpHY5WUo2nFRDEQGlpx8q24tGdIg4EX7qJFy30T15Gmk5Tg/tLxQZiCScTokOgxPZ2dTAABAkgAAAAAAAM8yJkAEAAAAHWAlDhr/Qv9C/0L/Qv9C/0L/Qv9C/7f/t/8m/yX/HPwUP5tLrkbooT3V72JjQwb8Mh6ZTpL34MagygYyZ371eeDFfZVv37YslfQZHg89lX2tvD2p6d922OBOQezRb8hW1BUqoUcPdJetgiW1twmzmyvoJwNXdfn9oiXCjARpVFuGnxp0OgB1sg+9IVy48ApSAvGIetsDsgWl01qtIbx0GCh8AFZNB7wP0Inj1N8/RV/4sIGixN9ECgIbu6VH3nGIULXHIuxV4Kvc42exS9P4PXURdwWrewUv2/lq5Q+Dep3atOBc12XH51jdu4KgEp2s4sZPEEQOONrpNSS00nOe5B7WVChDZRfy4S37FcmA6b3wXt8BmPQNOhoUQSTz+3azdlHq9Bk+fBA3NMIdhEmAV/brXbYSvG0Sd6vPdRCY+WByYsIvN15J1dvQB5E7bOFT/C62pwdvblg0SAl2PT9q0fyFh6GPHEZp8B8IUeXOXR6O/UNgmaJyf5H3FwrwJfjtoa3uMbwf1xRxwiabZoqVn0NB14BZwAzsaa/2bu3Gd9zlqL0oMq0C4Ae0utE4lth0vACvhh/5EFsJA1XtPhGyyzCG+RD6UShqxxfuiEMHKgXEBdjP5BVI2Mi03f/bSJfVaSn7ERx7T89Wcf8ABbpjpsIn/9MgBncZotdAz/pt0cAlzeygDrZUh9dqw0Ti21xXpC5J3xMWqetX0xAbZSALV/9WDDfctdxNHrWSjZK29emOrxefhcWhMl4aGIeBqIGS1GySWNzgi72/VDdj5YEOkxMNLhJ/MOOWexgEELCAFVYfhGvRHfO/AjMrjdRBVb8LOknX+SQzlq+dBOdZwMgRXhG4ipSP8AkWCh9HVA+ck89g6abe6FMxabBYR6IXzl8JsfwV9lu/JwWRYVz24/3IXUFpPDi2wg9So5VIRYcy0vLsVBSDzBJpWn0YDX6TZTJ7GkNppBgsNPZDgYhpMPfMFfKXfNScaZMzMVilkIQ3X1EVl/DZaIiTzmmt4WH3UXk5Hffd79E8S7Nnx6d0UQJzw4SbBQq709yNz5C/bbwfhdFh/P6CW5YT4J/BFl1OC08yTcz5p4LgF7x0N7lhi9vW9cI4u4tKXAvbutvxzGfAhd9pNeiqT8CqLH67dEExx/qodgJ92xgMvdAxPQuK+QLLSsdrbLLNRlF7oXXcLx9L3vKOcTvBBwCG0eZ2G1oDzxTcJc6SYH26iJH1TKfXtDCXLed/lhvnR7GnWmoO4dwUwxNS8zyiPzsTGLAdUBzi0AEcV6jeD1GDpWBKXOKJBkarR+bc4ym4tkN9pyu6oQa8SDu0PvxCOIRVEXYQ+t4D2hTTkNEIE23LPM2E24py9XAihrPeLbDncs/H/FYf5ItWmk7aB7JavM1hAlfxb6n9BLaq2O+d1Ay70lIET/kx1OyhHDzZR4ZVaNLytxOBGIrOK1IFZGXmvWgsmWfjhYBvYeciJstl7TQfsqLWzJ1zmKQgZF40PPBqs25dJtwD2DZQbMKIu3NQFsuTv2qIX0sPulhf7Tri9eJ8kDrr13oxFLJhQieyiy9eVLSrd3k0xDBi82xljsAIM49BXnfwIEiSpD6ahfym+Pgbx65M0L0tFkLy0vopOy22z0djcfW1kSKc1l6kquKX2eIFrI8Pv1x6YOG9hOe50sBIJO5SOa1jYQA2szpqQoIzHw+WfsmW08YV5jHYlp9k+l7OEFuIFzENXZ7ueh9+CG00zOd77mP82V1n6gtUrPwUDKtiEteUWFjxgu9HBZz6m9rhwbNMw3gwodpp+Ya0I1G/uC7eOKeG6QQqUrQXC441JUBD9RrxcTAMY2FAO47/T6tWqx8nIaHifFJ6+fmY8rtpT75SOO3h4WSiHuWhqBtPq6MFRMVznzfmDxFPPOh/S5Ik38WunkbVA5oWwB4ifH+6ugTkOmkG5AKc5P/x3wsARidiASulZ2+QghTIhuV1isC/8oqIAx2CIvkWydNDXgYLhfgAJoOSodMxjxp5YZEdvzOBcy4SZvq08DzhlTvObAewbS2Fxb6oLnrxhiOS4qKyQs48KbkwN6mwBQVqtHjEBP1VUsZtfWyVpGwC7WbN3ZMnhYiaK8cORl8Hnowfx/sjpGYyWMVWAVKeKGqJ+rbY2FOuI2Tj4N/fg6x8VTpPZG9DMQCFfymYVVZhjCaAZfzXJZoY5kLB+txGYlcFbAf1y0u+QBrHoTILVbazDhgHFEqJb0vhtc0rytX8jWzWRqC5npQwvRk1Xp6ANxs0F7Fk4hQAmeqoR0AjKqDzsaRHvLvqZafBNfw9C3EsvI4wtEkZtf68+FloaR9zsdBkTkB7IYJ+oA8EftZ6TNgAzEDg5gHERY0SZnlZMsa79Zu39fzr+yqO12s3qcU6YkFqvXskD2s/SC21bVJ4dBICww88mN0yhmm9e4lAkex3+uebH5MuplWRY4W0ixOCtVUms4d8bF+V6hQZgxwAGclIGjxXAKVNVU0TfcP9qDLFZe1A6FqgX/Tipt00Iadsn90jiEbWhDpHbQNLELc05DV7+J+vfslinDW23i0tS4dITLnRI9U3sKq27QUt2YCnrZMoZmIAnLLaHju1X+8FR6lrmsjSdfwT+qiNJZz1Haj0R7TOWi4sMZ+Pi0m86esYhO8P+b5ByfVWm/c34mzCGg7CPJ2P38mKpv/cZanrcoinKshlljlWmh4BjiOSzgVN4JbkydHPvUIqC+bR37fjQwTU6wDShbqRcNHFgAZdkC0xB1vy2jqYNWepX069gL7EQ+CGyVGgTR1Qfx9vxFanH+X08AjJUzTJrVhmVFjH4vLaGPStJ5ygYEaRtO8KiqvlqrMh1Bg9Rqpcgghp7aCcG/Qa3ubvgB/OB2BCOtkRwvBYY9rZWibCTjo20juKENwCrljVRC3LkSprDNktol3uXWEHJeOACrDC5rsoKR95hiQJ/PQks9F++JyKYd021UrejrYU+hz3mHeO8seJMQTyatUntZ0xhFimAIglpkPYTVZKg68jWFRPtCYSZi6uJ8eVsPrPCO9ytvxCMmRRbhvWAVjQvEh4jAMuubFjHrnwFyAZiQdCYplmCc3HJPGXwtRKEvaF0JnrmI2COv9oMU2MU7FGwu+OBTAKhw8HPZTFy2sUxGk7pYLzscVE6RUgvKlpIIxIoaiWTre5o60X71GPUt0zyW46v0MmIh1p4qgp73c41jH1Ey8oNaaYp89zgbhio+Z4dJVDFYAu/yHyC56ofl3VTUFcFgrc3E4hhkQp/0b0wjTXQ02JJlnlnTOu3qgDV6GF5cTjNL5qZWV/HhVqGLQ5Yvi3rKkU97o+1u4tPTMklI/wEzlV2++C+iG3cuLdi9MKKgCi/npMjPQLkdOeGfXHAgzIoc+BuoCsJQDTUn03kwwM59FRzOOwgYFcP1XBhyfjOe9+kElPfJwVueKXkxklHZRzl+TpIG1G76eqJb3AqGASdDWkZfxxW+CSygx1IIVq3NimfXd8wO13Ynm2Fm0EE+d4eXTjcd8ZmgihUs71TrG/NAmIghGFJNyQ371FXED2mb6fq62ru/z4p9G/pdca65wa1RUXPoefsI91bnJEfcuOMFp14NL8jeDQU7nnN+m3EzAfTDKg3IsDEzkxGICGnsrblVm+qyPpL9MKwEjGq97N/rpJPd+JmNbdGVq6Q0iBFGIFM/1murPPET8YQwkAXNj2vO83vh8+uTX4G2DGWqpgsko7stdEMEqKYAfGFqMpEDLUj7quLLovQGnxQwK22CFtyrJqWifMFUoQA3wek/gV9iLhFvKsd0RXXo0XChgs43rQHAztbOh2SF4UvasRzOrYj/CI7ThS3sde/WMGhIKk6NlfP0RdHt46uOzNmuzNhAQHI8uugbjhTmwOm18ouETYlXnxP8rJ2P0dQv+bqeTAUS641QKL/s7Yl0TqlfFmUXkOVq25AC+DxOIRTMhJFs9puT5VU51E8yXxKeuxKiMU0nkC1/dYXtBgflpcOlBJ7LE5d1wXmHcJ+Ex/v3A/li6SAkuA1AUTXOmhR8bSnMhwYVDZcoyEmyoQDvxwLHI6yw+Lcmbbpr/IUI9qfOXyRZYmBb82MYKZJ4DTWNsKc+ISJ5Gb+Cphj4Zh4Lde0SDRk0zarNH4w1uFybJ/GoVsVbl5TFDe+Z4izp4M0yqdrggIx75aqvzB2vYqP1vQ5kb/Cd7O4v9t26uuWLEnHpOFcvsggNlFoRyDsI0ufMaE6gREd3pgWGwTVPrOY8qBjMNPj50QbM/RliN6baUPU34o8HvtHIPzbA6MS+av8pYVNVml9YNqni9Df1RcwFO7UqQdKP3dFIgis7oJobyBOGlzJq4RHe9/6ETbn7OeO1JzugFFbf+/DgRaImnrOIiQwkApAkApBvdRJyPAt3koajvd3a/ycUknmzfidQaSRfW02w6EsQKS8xSP5I4pydM42wgpkvDSYT013KfWq38FYH8cOIoQhpqkkB7uhCmD1CfMLrEI5sdkWhV3uH7y5eZZ179KlwKa7h6U9Rvbe3n7uzsf8Tx9ovwP6BfT4Ogh/4sulwFF6vcTWvPkzAiRzNquU2BkF4BbaExEVRCn33VxV6rKKxO6v7z9RKY6t4huqcUzVhlXwujYG6775rIBhaeoeb4ZLPyLqBWqvMg400Kq4/qvr4S3spsZFWycb2EA+SQ2+2AkTROxzyzLWul8duSz6YejWVo8gcTBlUB919V14w1btvnONZea1Rs+gTCjzWf1QY6o18wv24dzofC6pPyAqmCfXeP4bfnjFnximjLFmONpI+g43oyeah/I/vbQD24SsudmSBDE6LKLTIL9BMMD0Xt5bg4AHUWf3IQB+fcdFw5YCykiLrhukWFTTvr5ju8dQGw06B3n3fYNoSqa4XlNQEWfaTRhFosAXLxtwtxPcPqkm4pyGVuYaoJub69YO8/hB0O4uv9HFDSawhOhpVKLvoCZ2qpbIQPP7CHlXFdxBWTkdwjlsgWX22jpyVHdhAMh4xflKTkoPRz4NCpLFIB6YqJV+S7u7sDA/B3CN+Vf8/JSiTTRb/3ikwvO1jhTMFQRZEyB4HilHo0W+iuJ0hgsGd0WwD9wOUpTedvsdkQ4w/avNbFhMKQSF+fX/G04yTP9eQdhV6flWjhCWSj1fqNwXlvThDNo0limTFBz7oALptDMNY0P4wuwswt7KnpcmyIylSxGea4arMl9BOV6ewby3V3eAiifUYPM/AHcsGaAlcDJy7Q73oBveVj/2eFFF2yJ0t8l9PK6+CwQynkC9R0TXpczVad8ZnkiKKaGC+PDjUwRobZI/S+2sipRwUm4/e6RHBMHLb6csMqPiAbjdJeRbEikCMHzvIALLD1Iny9k3zX3NJCI3ifqBvhqTrrR08bSRyzshKW/ZVxifO+wDKLVyO642LgRA2chJd+HOPw9SG/KXyY0ksa/r9pWBz7mG4Rxgf59qjdDcX4nUhKQPnC027leg3avt30RxlNsHzKkVPrqesIJmlWTvGpdi+8s7xLJ+ZqCC4QwH0j3o8muH7TckZ5ODAqMs+wdL7bcFr8Y41GjJ36Rzb4T31RtUv5vqmvpuSTAuKRUO6YMkj0WOaOzt2Hy9fPDFcq5baY1MmHwTWBT3y+HIcM0Sq3tK/rVEFP41fvONGeC5HwbFQ8g8FtSewyHWlDQwo96yg3Ice7bFqybkHbsPIiFT37QN9Ln//tONVei8hiDxu958eP0vYPT1z0afst7XBEnj015MHh0W88FPn+iT3M22HUaGy2s113AYay3WfbUxcVaFRkGn223jCVva2MEZtdPZ2dTAAAAwwAAAAAAAM8yJkAFAAAAFlVCnxv/Gf8s//8E/x7/H/9O/0r/Lv8t/yz/K/9X/1D8QWeAOMCnrv3kwerikNp9olEMUxoGWOiPU5ClwjTWcXQICx2uYXB40scaTfrvXuBmwxALn5OktklkyD0d0bgOAsgv4S41wCyFm1vEW804vmTVUJDIZzLCQSRHm/deniyGVRw81EJT1ZNRmztUIKbKZ+ETeuAMws3QzOHTXXskR+0X4tvv1g0nUpF1mkN5bxsyNSRpwaDtJGF7fGo9/VVLT7f9dEMqk11/W+a/CryD8uDHrPsZk64KVR3qjhka2ItIklIFNP2rvkAwpLJmR33dgy9h4bhEmvg4a23zO6qS0FzrzW2FRErdPnzRrX7/lkSj7YZrdaVC6eqR5OfU6jKT4BLoW7/R7ltrT4ht1iihV+791WuL5vrv/BQBrR4IhmURbZo+wRM+ZP5X3V0JLVMF0tPtnpjqudXP4okYD4hj0yKjHsiXH0lcMM7iHBn2IgQtyFtGkauqK/GScO1F1sXjNMjo9w53moZs5l6X09NSXC1IwQWiu8ICFxkWuyJsrvxY1NQJGLJxqzALUWWf3CcaK16G3F361pvpPhHG0GG6mwqRt3opiq4rIQLOkUAM+Lq6RlAlJCPKRIZlfcluDawHaS1gkWqJbw7aqKvftZNq9q9VlPrxP3uapyRfKLH+jC39ifFpaqDC4Gwsq+hk0PayyoRA3cuTR1wCGSjURvFKtdYLYLxyWYFLaRFyYGNSz+2qDIjvC74a7wlxpnVS9cgDxsTyfCLM7Yq3qQXv97ha8N9kBZYaEwpaMLfOCD1KVUJZlsr8cA/kkbd6vyu+K7Pi3IeomNeHAx/R3t4oVcfwNWDEme1UZgOv+WvibY4FCkrmBzLUxo6X1eyo+WmV5NXI8TXDLAfhj3SE5lsTzyXyY73OD2wd4GjdTFGX4QRO5aiV8M+hxgOBTrj3dCkIlaPN8zcmY91BfAs6J++QeV2m80V6uvrwZVpRsNqSMcw7V+Rf8oZTAengPfcw1fX/3P4zeimOj3FvW9ZXB9vPkc/KGrePMWva8CIgi4nnz/fTeDvAGvyyC4p0ngdM4rrhPLyaZiNEBNYh9sHLUWeuQXuULEM81YlGlA4q8SvXIA98wUZbiGQweGAEPAV83lzpD1uIn9/FcvWEeM5kKElnpgsEfJAf9rI9KSvz91+JfDSVEByv4zlldd+UZNSmHsSLtSN2PlAGu6gSAUkBgaVqFLBslebsSfhvtkjSs55oo0EqaIq+qSN+isz/2HfXWVn9z5qRcJ4OotiDtqENRdU/545V0PPnOtlIGrikJuCu1kUMNk/DLUIcIceiAjfj2EkZiKryS3vWwPLVf/zK9cnqB/Atog4q3sw8MB2bmN8nCIrEBBWQf21MgLeUxswcSBl+FsChRJhrlIfUeWZMJhMqdrHY2NyElvCQNortCJPnzixeb21updJe6p3pNdohIrGVjauPJVHWcOjxMDwybidigSVDpAO0EE43/FOQq+S0Q2ClkFFIan6dndLCLQ5q0GWTd6KCIvCG7LECRkKb+cuZZF5fo7z4DILc8w2baoVb4HDBEbFFUsMMjSMKsQN//AiPDPrFFXGvsNYnrKqJfcbNSR1VKNx4OTM4zOBvvHf8LG9D3ewsIij5IA65unUQaoSeFQAj2GN8SnHqyp0P/FfzjMpUvN6ADK/5XSfDisxGbpKu4LOx+YtIq+cUAvCqqJkLIGEP/qNnrCHXWaFA/1jyvJjOEAJEFQMxbSaxRaLiA0oNBH4M3Yg+E6Vl4JL3mr8qJMrl03HMSOmcfNdbKRXpwC+vUnYbtcrpVOzwRTXjwstjg4Wg5RxTgFG9KVedmgKUaiikYBGVPtfcPC2V43FFIIBhn9kj/BOfsCRaPpAld29bt4tbanHCzAk5ZCxx59A2t3fgtezFK6JanUfdiDsTLIxrzuTx9Dhz0AwySKrG0KTZWNnWhhETExzvgQKaTFevGpHkFBGTix4Nqv7DLyG0sRrtRvwrNm/I/+VvxLjbfeGuXtQ2P9ZYlefVL1j4BidUIrnTvr+knwN1PgOkboSsdG0MGHgzrIfXhOF54s9BaIfrgKhPJ8w3dbXL3tffOu4KAGcptPOlSus3fWgxqegJu9SC76yRARt7HzU8iDpWqIvFw3XZPajj9DpCyvOrX4odJ+F9ByDCj41E6GOJlcxqYOtJzCbEfbBJ2Nuvlso5eLrXDYz+7BMsjdBWDXsPQSMAmzg/XHVjAI1XmsCrdNBcgSgdQvxnobV+UZdNFxt2cd4Jds3OL3be7TAzL0pkqRcUzUN60AWxNLC2jBI2sdONEUVngI26j9UCNvDqCILMjyZaYGbGUi/qI5EcfjQupOXa0eBMmxlr5zp8vnSk8cdt1ThdK9cdZB0qEACQTp10SGDkpi+x6YQGAc3IyyAgITFQtMgTx+2tqDgPg5vg7XfgrmXJBisKBdiiFt9n6bcfCMePM1rgden6eaBJBkj1SngcTiRAIBDVFSkXFhUYtfPeuHf5xVmlAIaaX6h3NDxoiuUS/DAJC7Bp0W9e2x5IHJ7nw/VhZ/hP5XjAVXYk5Rr0u3Yl1hQQpC7Hld3MEzFEchcNPiF0k2oHSL2wmhq+QwpmhUMh+4ispR4e4jAm6RT5GMKbkE/s74DTA7aX5/mhEhS2CflmbOElYj2YluZY3tiYPZKUpbpgrViIYlB/ucZY7Py9a6FWvGTeFmuT7ppCg1wbIyCmUM8ytY2UuOgy2IanF+CoaDjdcm9vXDoB73pafO9QJcMeYF6SYoU51gpomBOZrEgdtABDlx7hSJ9XJKewCrix7kVZby0Ei5aXFvUayeoJaaHHyrjmuCTTq2oE2/+G4/ghZruvb5gV0KsjSMu+RsJKMQq6XT3uRDot8hUfwIXFYOweeE2+SvN0nbp9JeASWHGdmGBEdy1jDoB2epZRvlSYAe06CRZs4/bFs+ehhtjTCB2hjqLaOypTYXYwkF43WYWuBQzpAXwLpOgnRVNnb2mjqcQmGy5XRYkz4V+DIoiozHhkM+DgWf6njv5yBDM0n2K6MGDi/i8D5sreB4lsXyyvRw2igHiQXEH36NYaNAO7He/1Xx62nmXboIvSC43iKtFfVMU8j1cvtbYO+SiSVqv2uxW4908J/L0z4SGnomi8seeZ2Aw0CQMx0U0cOZIZR7S31Hf8s2y8ihJZQY8n67+MwiiGymsbdRO6xVBdLW8pqGNJNFBCrO7vPl463oJ9FymXzSHx62c3kKPNJ+y2ZcPScdwJ0k/+1b87kfvRP0CbrThnaoAEeIxLMbntd6jkEnuhm0eK9TIjm+vYYbinfvQilKUAv/clfXUzvYEe+AXx6oyr4boJMOw2Ih7WZbnSjpA5mm1qG5pJX/AtOBJPCKhf5+2UP28+8FbplNHvHWwG2JUr6K+IaeKKUit5jDQXuMmtTL7legWF6ed86pL7hGdA63gmO3FPZoOb2cQ545CBgqKgEaYjZ+t9J8VKDFF3T5xyKvbkC5k2/cRAK4jLB9lrR2qQJwIMAQ+BYMD98rH8BEcOify7mCNi0QHhO1kxffu2KjxYrKNvdnq8REW3Wc7zHaIC6QrsWAfHNl1QgDOjtonNAOj1HwW4XssI6C4/fCZ7o3i8/yL9nQnFQNHCvcTcm4zm8XUva47KpPTh8AGqfJq5J7igOaGUR27CpVsu0sRUvWaL1aIZ3rlqQpHuswMBHTUGNdqgsyJ40+gbS64DClnCwEu5BMb88f13sJNzw040uviDmaFSYpmpbvhFKqI0fzVYYiJwx0sNpUiaLiYUPfRLLZLXEfsG7XL+by8kcgKfZUQtvc6TDdir08OKrK1AWYRujdPFqdK9Un4LS/EOwOLESa2LH+5dZ/z754JEmjd1FMXhUzqzqMhLqIQZeBHh/bcGpu7YYoiruae8eXL3KUTR88HoeoLQfmIFx1kUifwBSwzBZ4pyt3yOU2qQ6S76kMqK5w6fNw57zFV5Ljmimr/1PnSx3qdFgj/FqwF48M5M31BneiyzkmnTY+DPhguy7BGgGrPuQkY8CiwJfNux9esv1z4eSlopzEuzCIUSAUqhdC6U8xYwkyL4fUieybA3uGNLgCq/MKwWeKSFdpvW6ZsDAhjwbld5eIvwNtYBTV7ZRd2ZLd2qpMXEDNcwuawaoyhOxMd71YBhC++uouuYfvSptN37muU44HJ8tT63bm/2fkko74H9e7y0N+72pKCPuAuC/82cbO+g6JVEmqIJkvnmuDYL80M5Wvt8nyeyS0yWz4UM80puVWGThIMPIUi32KKPjv7QCGCDFZN4VG/LSGzbkJ0kAtjoc7SYAieMkHqaqg50ZVWoch1R/NDnR4ICEBeN31Aqoa/DNkyG7P8YHMGxQEKXXoQJ8W4Py1yLRZVTxLX3bmpxKq38TlqvjrRxNomB8JDrreZ+hpDK3El+w1/fAWPgWzGAJpRmDSeR2ZdCD9HSiuZo1neiwcwlaH1eyf34AFLwiRPa7QJm8jsfAg6eBe6WH6lIJcckW4bmT83UsCOnFy4437hTLO9hixHhy4O6ssK/mNnQApCWt0p3NKIg2qVtxIjPR32daZkrgp6iDyUaYCnmi1q8hI6ehe+Vp53ntcvP7BgUZzhaxw1AlK/TstvPEuDCVWRXzI1GFTawqBdMaWIoqIlrv6bnMyZbJYaZXwzOvz+7E85t8LHwMZA0nm2T/TnNZ/vtCyTcj9An41W/bxbwn0gpY/kER3Aua6OJ+fxCaToCpHFXvNfBBm3l568k0TeQ78tv9ju5g2qNMikjVMuPkmAzOZPW6K4NaBEoTa5MqTpHcS9PQyey9KZfgAMOWa4RJhJPHbZSMT73aXLoeuW1BIH+MccoLMJPRU5ge/1jR6wfoHw55BVbf8kYuqUjHcGIOW/oC+ARyu3YUG8QqpJI/B/AlLteuhfJ84lJe10Q6cZgJBqXdksGVCsGG/5UNObQOYWV4UTDF2x7kvHVuF4EWKMp08Ie78+EMJZuH3GPYgIIVovjtGY5jXnIQ2QQjobGeqlI+BXSW/4iOw51cHE2zM0UPFtzepEt6stT39RWagNRlWx1YkELu1hJM0O639Kquw4MUUIu+sb4ELlFuTzt5D15l85l5zt15N/ag4JTkb6I/JUqzT8B+h1od/nMLAjQdh+2YWK3OLE8v+nztUK6Qx0eJb/f+Jdld3KxpfXyS5a3LfySAP0VTCTTGndbwIXeL18xZOThVh2Pk15RXunL4QUxKk4mNgL9n23SOM5cA63nW9FEumTgSj4HIoxPx8AyliE+izjz5f7voLgpxLRV1NlCI7SIGh6V6oDBY5RLN3o9ekSwg5nj7vIpkcmF7CeUCXrT8Y+ZxrPrivaR0km/CYqYsfPmFSpjYlBQEgHtES1nvLkCE41K1JNeo6U98QrSwNhkMP/6iISSyV2E5jo1FThh/etkDmL4oExbR40In0tRMC+zyztW0bNcl3OkyN61TJptUq5OEdxYplWWOfXZbgGjDXY8bKlq8BA4KQ42QyS27iGwkKSWMvfcE6iSQNIkV56kucQ0tIxNkympADkUWVQ5A4QcPaSRK1lyU29NlBHnPuL9zqL2uGFVzdUQCCvU7xJ1Y5mGDg/AxnwhyBglQYxHlu4ynocA771o1uDaXJI4T2dnUwAAwPMAAAAAAADPMiZABgAAAN067t4a/zz/4f9C/0L/Qv8r/zD/Sf87/zH/Lv8q/yz8F2OeTwN0ZLcriuJbyeCLBxsi0gV2S217aCnbmYvu/Ukdz0EcAUGl1ckHZ1Edh/CE+GL/1SNkoQYtF9N0sEZ0GXak9RJ5ZcIS0jtkOGqcwg9cUWRzasaDGWgEhmVW3M+b1/RTSpG7a5drmNQSRxuLhgLcMfectPLjl+Xi/FM2cci+U8vYUhFOKf55sog3XUEeg5ZYVuVeNWPfdU+w13AzfNQiWE/SsUHTQi0ICiZkjAzdLicH1xR2k5EIrpIUoLVXbfliFnYYX7ofjNLtmw6QTOSxfixg1BS0wCOECs/dX4wK66iFpa9U+Q/gN62obw0dvxd1Kglm6ahvpQOSdE5+gfjngWhpIPhdvS2h5qdcEKddDNi7gYSv7K4pW8QM/wbSeavXwBtq4uH8aMONUYq++PdT+TjrnXigpzf8lT7W9yyYxMSxyPAVB8ITSRTKG0wLg9+rf8ed5ENsk8un3CgGX3a4u/waegPO3ErXubVl5AySTEq4RFcFWjTBjlPhUqSjAJ9JVcsgmKpaKVzhH/7edBB4NTHJ2gosxqh6JobJleDyDSe1AaggVP0UPsZvWjdGUy7f4Rj4teXsHLd1gIXMKINZmdbvyjTeLK4raNy4A7fewtOn2NDTxguUEAx1P+77ftxMqKGRCX4PxwBCGJ4kxZRukuCIQts2kc52xZW62yheAzyVJOm1sqrrlp0lrx1LBy945vdJ5imG0hdpc8K9ir3VVaf7FZ7s/mAKexaNXr8ftvM0g75I650zXpaR3bJR2ki4itPckFxETqdDr7x/HrpRNoZfIto8PuxgvMlMdTAEbaKXbyP4IOV93mUZnsnU+N4Cwhf3p6aGikZS4gd8DWDuceHosYOsPFfiRuLWdPO73YiV8KQ7AkXNTaKfvwDttr0tRNWGUx2zFA5TMOwEVQSLU5ujDgHLryFYuqq0T91kILsOJ3cxVngqwH0sC1OsCQZHzqrKBr0Sz1NRXL3CUy1OjM/R0+p+aVx+/1Lx7MSGkZr/FQv08wE9CmPlp226J8FV10Z3LF+h7HCl2+wp3R4N0XLsAE+KTbH8c1CRppSBOA9ucSeVKkjaJpEX1OYcfswud7xfD36iHPLoAZ4qLP1PiPulgbItCYC0NPAyCsZLTPjoMaonPSer46sI7Z+Wj2HLfXVpxWWXsiOFhQCLuL8EngXHD39ExqZe5UBWEciNCy5Khk8HzZI1C+emzwgbT3/XIHQChAaWunl2hs1AQ7leZx9EwVnGzEzLorCJqt9yfJDtGgEwEsfeU9Rc/ZwVUTHlJIrDgvnUIUEUgXHVfYXyM4bfl4Hfn1i+6W5z8yJKRq/f3CTvJCNcyl8Dah2DOMXFjKAzsCXhM+5Z0v048GNuOAKDeKThOi92QTqoFP+9u3PNfT6yo2OotKJRS4l+DpbEdDrn8v6J+L5CXGT10tS/J5Qn8Vgtdq5R4blqg7MN27n4PF3PE4ahKsyb3wtLyhV+T3y0zk5kB+v8Q45EfBFRPApiqR/mivW2z+tZ8iFDV1GC9QV2GPC0R2Eg1OAJkUCtRmYgu0wyvpuuN0XYX7KGhLdjQIzvrVYJz4Jxv6MX94eBLMLEobxJk/YMnqmlt3634pRDroFAW91m0yjF2qykU2hTHbbF67ZsPOgZjFMk+VZU5s5gYFMbN70+CTGKsw57o4BTJcmIQwfTBiIpQxMVreylwV+GggnPDYl5WAOyiaWa4Gq4KoIXjuNQf4qEgGeuz+SR4kAVE5F9RJjns/t3sehFQN5qPWZ93luwdn190a7+TqfCaeuZesBbDCIPXpXhvCRCYau83EaAM/BXbZNF124sVzDmw85wGhosxiH4gAy8CxMuLzElTtsAShstOsbfObmXvFUMvB0R4yhWTg3VnqJCVOkzUpPIwgG4hJZkDvfh4KbmSPsQrLn8MdIt5RWOgUnhuMF6HMMvOM6oDtZBPZXzhlMj6X0fK8/w/FBA/rnrOWD7603ppdQOxbfpXOrjhVJ5oqtv65qX70nM7G3tLcuNBhGa30YtsI+w/J9S3PyN8Vn0MdvaQNhj2T+gexxBWNh1ZwBfdGb6pQ2CHCrawOzoOj11JI6XgOff44ObbelLUHFqU3iup32ovzmVStTo9iNLKGgXVcoGJfRfSa0Fh5HYq/1EMKhsHq6+uv/AAI5p1OPNgVfSbHjvwxJERB+MEW1hBAWYj2AVeXMuQMWv72lftcaC1aEwCk2RMQ/LqHpYfwrNl72S8Az0nbaFrWowGI5zJ+bWj1m2Rh14us8WPO4QUbr8SyofcHApOI/8Qk+xKQV9+BjRXUHeCZSvWmRSSsPKXQ9nP9P9xRt3fhTMpMyGCQAfGHLbMdr8LorU/9EyhlnGuIeIS6GeK9y1Ds8TRAhfTQKOPD7+DaqekIMgprxeqn7FkKlRQKPCJqZSq3egTHbsiuxmLB5PyrB6HEqCKbbHp6KMkjfSKC1T/LEVhU0yVCQAOUDc//ohwXJbdmg28eNuq6CGn4gEFWuYNxU/m/OY5hgJXDNV+EXoLYBZ/s1yltfKGO5h5q9XM3B84Q3osxRTELK3PJFF9HSYqmlIftre6yLSH2gP6VFvNYSGQm/lTC1dySZXuyqS/bndmprTpa9O9GF9zdjzQYX6fIWwL8wAZwIcBly/iGJdt7sxfHrqqlglIkQ+JBSDs52DJ3PMrKWFYEzzFK3ZaVIAsvmSu7U/iiZ6+c/SxX0DGcTx30cWvEn42ZBGQVpRHLdzSWBfFHTK/OZNPENMsGOUhCaQHilPO3OrlnuO+BF11jZkAHwuc9ICG38xpT25aqw16mtom/rc65FnxGgxaejhceNHVj5k1pZT1sNMGnL0u5fiA1HxMcWu5f142XPSTBr6sQr/SgxwicI5AFvHBmlJz+7x6mI3d/JsaViDAAomkWvOBObb0hJvwXARM2xItyjQzo+fVdrAuw9Z9owgs9A1Jex17itxEyP5DwToWGOh6ViF5iRkxwZ33MufjCZif31dMMh7FlFCEPoXujeWcqeyLt6Ro3Gh3Not+AnSu45uyA4ZIyFYfobHjewICsWlk2daQZJnkI+Le9XxKy2599BBe5GvN5fiGlXzGfIVAIf6ycSFRtt8ptf38w/O3ItjeNhsj5J36q86XzJtL4fdkxwI469fypvm/OZNIMvOHRQb7XD2q5OORzMt0cQLPEmxT9AJ2ONUY4tUoee+dHg55JI28ZOb9O3O7SiBMq1r/ahGmO6yr4zzDyGGy822BNp49SDjgFV5aFCsaoaKFYBbbrp3CCDC9Q4Gh6dbBWeWrMhpRRacEbOVe9EkYhI7tCHMRjHH12aTdbOZzwDc4cf4iMtQI/8tcSwWEkozp5iQ7Bz569/vLc7zNWzzLggWEGZNOUmAjuqCZn2hOWLa+YIRF0xfO+78Wfz7dUQNDxLWUw+CqKZ5eQX5KJGbqAtl5/SDEKTihUvBzK9075uacGf0XTFNr484kT1W/d0wJxkU9ytQWi2N8uSOTD6aEG2/7FaY81iJbZE4Rv6BFTjHjQlRtNX4yaj0Nk64M1kud9JFQfU6qetgFfdEFjPUw3y+65zeXXG1ME+MF/wuvjEWrjjl7fzR7n26RoKqmrv76lN7Oq2iAxl/mdxn45vk1iRDGZ+h5blayS5wGQDhDq9D3IS7X2ynX4WUBn6oI+w09+IGZ3dSQgrIcflQkyyjjxNEHqKgb7FajOaC32U9TV6W2JVWkOEEek/sn1gc5nFldanrONHjkNjGZ8Jax8DTuBdsJtYJ0j/vna990FsH+KOVLkFKjxe270pQOZphDeH5xTgJjLVPEHCqe4fxpJlH5EjiLccO5aS9X0NbcKjU5mnIgjIQEqNrolWi1f5QPxwCmSXJA7qZJKgt26dEeORjIkDo26h+VbW1EXlzb9kGn1vzvZm+ceLubPpBYUJaP3XX9idh1ffiQWo0o0HS4jN/JqISzuOqXrUGho8swzfIzJWWsB55XzKehH/5ixNQWxm2gYf9WpNEijPNDmpygQF2/ABOoHYJvtdUJxXgK7kgZi5elaSXfXRLxYBPmp5T7J1HqEP10hKXT08PW+qoFbtJc9LGM+2b1k4S0l4mImpMNskFoN/3EVd96ePtQUCCG/O2A82CTElxd1oyAQsxBXOKdRewAJzVBbrynicWJ3mYETwM0wp2gAHLFsNeEVHz7WFH9rdAgtcVJVyQvEM2/9bz124GDR2x3Xq6sQlVCUm2TvWekKSYKX69iaAe0+N/h2tRlQT3XtkxyKaP3vptyJJsxK6TlOgucTml6Pb5Uai+5HG27QyfgO1E2cLqVLf6Nw4v97gDuj++k3g54fv3YEeHHJbLUZ8tHyds3yAD6D49WOhV40/dhrjU2qYZGJftyLbaT8jvcdmAk8Adszw9NxtShzSSXWxyfcxDwfgf2SQppfwALpVC7EBm49RB5QzmUNNX3uoxRp0qlkohbiyiDdAZ7HJH56kOz7zDKbvoXSmKlmRPry7c7ydhm131DPOZkrAByPT9ijfCjZT5s/bgCIGvkNMA405H56XCe6nDPtIftd1Ekd3EYpReJOzexGTuZXFiIIo1BTttZdYIrs9F9aw6XOdj93PU/Y26lC7ey9YfMLa7xrWA3C4boyZymrmk3DH41t7LxwF/HycRXtaQLP1Aa+mSJXGQHwY9VTiOI/9vBpLmvkHDGROhREP58fVI78IP/mX1cnaThShSdJNKIzfb+XoguBh22rYLkcJl8Ju5dOtsJEwwkqd7bLd/nbDnRDm/gyFvmbgOnklRLS9urXB09+5n5tata+4VPfm7tOzf107zoGOcbez5UK79RPX85WGgLYr5XBSEvl5p17Ee2bIRAh9PSz16jSF+fGXohnMiR2GqV6GcQDxkifj4DimMAju2S6gRzTvvNtLElSvJS8SadC2Oy9VKD/uVuhqrYqlryfGHx/0EsP+holI9AUU5d1MtQ0jh7dqRp+92L/4bkk+3N0J88me68K8o+gMYYWq02ooS6F4K4NUqYLJHFXKNzMN9rCuVAdC+TDLux2KlVho0rhF09aYKuLLBzBkb8kHXBMREotdnSNXZhBkDKfOuf3SmnOEd9yogmDNi+St6DH1scOFO9U/ZDJTWssM/kNaibyvMbSvbUJjv+AYCkpPMZKe5CobOUZtVimhP7QCzNyWSF9+fKabYMZI36vA07ZeXMD5uy8CwlP17v4wNhIVyPKf8+rjsocX85WDPRpBKss41/ByBAx9yTojbLm4ygGKsv+R7M3fLwGsI4fph3l7gD94ZAL8C+CyHF4ZxKkOIWJuNE3AgVvqOGQ7hVu/tQOeOYtXzFZN0Gbfry0CP5krIbR7YDELxFMqs/eZSdXualqHN2GwobMA1got/sRtVzlZyDyb/4AEu8QSM7NgRNcfjuJhtMawuxVjMx/0LA6CDnY8UPU4JWZoCVFzSqJMzxl7OJU0ARKZAYTjjyxUUe7T+d6DvLjeDuVVpIb+BponE9fqm841m+2UgP2S/duiC9E3UzrCieIUZqd4CS4v9HuEStghEuWEW0xpLN4+cDa/HGDaATSNCR6qCZTln1b4SE7N2YuzUy0f5vJ0PQvBfd0PZONcF4jjipkM3h2ZsYulq/+/8uE9nZ1MAAIAkAQAAAAAAzzImQAcAAAAie2odGv8s/73/Wf9C/0L/Qv81/z3/NP8f/xz/I/8T/OVfh6N1Tw62sLh9cVxbo+Xru9uzExZ2u+b/GWOrP63lkM+ylcB2SjmhJMihP+M24ziFbP8jJrg4/0KxlUkuqofjGKINAoijUrU7EstngAwSypIBJHPg+nIEZC6zE5x8Nz47vknloVgboYfTucbMJSR+ubgP0GFO3wWOiZUpts5UgfLIWSCLR4spfUz4bh5fwFykygsRMOfonwKHj4n95k1HfH5O1JtH4oE6rgGHN9LZ76h1mY/VCW8iE+uRJ1CL7WaXCJMxxiDhkA1LM50zcEKHK/RX7CtTFgIFrQD7/zzSWUR4kqjJnQZC6BsCVlRDDd6bmKYAflV4rXGGjV7uoE4C3GR8re6rxndca13xWKzsDFWr1CSRHYvVhqkkWZkXkyIl6JeHMAuPJLb86nL7ZbCGjqTRedf975GpqB+izsShRG1OuMfGBSuvj2BHAMGxrYX95P85E8YdbtxD+G7qgnTSbZ79APOL1yxTcKCQZarnBU6e8MOpLv0DBVJX2DS8eBM9dCps+PD7cvdO/nD65/0aBR5fAJBKiu66AuJaCNgo+HBuWNT0+Toubg7YCkDCbmnyJhFD1zSbHKpkcIFTH2VOelceflCuuYfIy9QYtZ1GLc93i2uUk9jseWMu6Ek+en/qNZw4N0/llIwCncat1KG5qu6VDiWC+LtOoLXattOe82fO1OLoLxvM83GPFAH22/8617JUI3qJx9S+WJb6VRck9f3+rj81ib9Wv8jg3/4pAvyly5avbsKqXL1/rRP/Q3h6/bY/IeiYbL3a3PWhVVTXykQDSuvj9HZB6Wa0fI2RgPBjMrOGd8LI7CcP+sFhGvUBHpaleFh+v1Sa99DrgdvgdBFf+GXQx8i8alGo593bgas99ZUmpJOYNpe8H5U8+kc5KiSOtZs6oH26kJDKxcW0k+BjH/VcEXuy3BA2W/0+ZHLF8YsJYhGkBNhakrkcG5RLA6bZurwkXYXeMrU0OXejW1hI3KX85icrtk857eFWvr/V1b4VHvqosHUP85RDBo/gXduxoCNG8Y+pjmRFw1WwUX0oGgMprYJ4Edk9AyH/eEG1/29+sF+sF9DPYamibq2RU7U5tMMl1OrM1AuhYCXYyra91wiChaIK0dvVxuimuG6+S6PLnBPbT9mpas4xFnp3WJYRPSAr9B8ntr01W+O1CZPYGGIMcwfko4zzsYqLWVgo1Cxmws5kIKOuDgn//7NRTMshyo5sl+q/8v0pD9e7DfyWRZrFbPJ87GkeI4IXKwLGw5Jiynx4CpBNORYNVa13bsOrS0vJ73x0y8RnfkbZou5/LYIPSQ0sP9F9BnbgQlDVuSlFxmiIePaEOclgjhIEH6E5xwSM468qwZNZFSXZEl9g0pcYd2Vz08yHs8Jx1PsIFJ3+nQ8ITy0/ReBNmkHtVeUmnfdJAjF1XAJYKuPffNgETYs1XMRjZzt0pvznPc/UJRmg5HjSVUdA0/Q+WRhlflj8eYWL9BLmBYUTkP5EtZhaK5eeQyPS2GY9DVdboJplLh9hemLzl0FRoTdM5vwVDbSM8OE6l0hrjV+uIEaCh9uFGMCjFrN5crUvwVgCM/TmKi/P41ughYg+ZhSFxJyjlAV7zqzaF7z0ycFgRzy6BCVEIN1jquxF474nWWmyvD8nwnRrrUOS/QsevR8vhz8hDtJg/uFb9QuJJ5cT6rOQYtqXR+7aVQoTeRR7PltJS5IAjTKtAoKBY/NgNdQXHSa9Dx0r1zKN+U7Nay2E1XLjDLVcVsqUj8xHzA15MpMNABrsvFNAUY0GHB8KrxVgXuwCxPwOCPXF9ZbxMRS5WGLkZNtto6cdgnzh00aXc0zG5/FFvepIOO8e6Aam3t/E37Ib07EsH/1X2/hIG38kovzqcwRcifO75NjPapBrAjrGcGQ8WGGXUkXlsr9HFbK3rFuflv+fUWsrOVn8DiwPn/U2w6A5NtU20F61GFRpTqdEJTWeutajEAZJdvGbWPUykVmHNpAbHSG4pkUhbrZ/+HgRU9OC7T59IEtl5WpnAAHRByjTPnfCdVo3qHsDURN9l8hdOjUytsBOFpTdrZAPzLyuvX8Syu20WnBqBUfbZY3rbywH/p38kLwdTzAh8ZDpD5LIH1iZMvWLRYl6/5JlIHaqd1wbXvIQuMU7eD1T2vPXvDF3xfhi1qpWe+60pbDsowG3Eb5+J16f46++3ywS2epBMxd6BOB4EvPOIDtLPdXRXAmVEAP4nSGg/phpYLyV5YNahUDD3HAvIUl188JWmlKeSDS1/lve9U4C0k3w/Gjd6twfaP3tk9sbJshsl0Lcmvzqc7rnyoLugjaqIvm3yA3PmA3rrtJlSSUrKn3KU9AGGLLM0iFJpxpDyk5jd7FPKe5Tzos8yn+WT9+uZmVKp6qFptWTyUZbs3u722GScUs5UqPgJJHS3wRiBC0kuSZCxkDb0GQcJH7cvgMnB2z86uMDXfY82l83B3zgaUQ4grik53iiKGFBJfvVUEQ3Hv3ycNUsHEXNVXuRR2lBqKTk2QHUI8i9kzdxYIRGzwJdbHGHome0+SW2EW3XrK2j/IizoHTverehzLIGg4SckEDWHV8dgGGd62jmbMtmHOc3gpNlsSgT7oLe9WZUOyis5ifZl6fwfzORrFxYoXMTXZQmjP/1FHMQHx+4RbdIj9W5ODhx/lwhzEZTmxvY2DbR5ABJFkCZZT+XBkQxsEZMF76mNDDDgAFJc6VowOD7743Ytv4EmPzlYdfWxGzTAokWbpDL/3BsFKC6LELoxQtHdIpp/ns/EvCzL7ymDFFTKC8KabTvLGY3ud6XS+82qaGjsCrPpa7Dc/KDw8LIQuWYPf8JGbYJo5nETCDPCCnuh3IezZwnc96R3Htai+llxkqvx1r6mR9LJOVMDTNuZBrKeDhgFJYx9kYyrBsHtTeKHDnoSy61MrVpzmMO1AgLjnflTDqlCPFQid+rHFs5EQDqltgt8+XqrNAVzrCMdvTjxoeBko39CR2tUJcNsgj6AuZZrcgg6NJcMWkw0L1r//dWh9dLfwBKz+HqjibHmud3SHcJwu+ugPphQZX4zkWlw9GlpOfQkDsFbRYZaDPo7TJi3USmfeJDHmnZalAwNFuFUfKc2Ddmwu3PGEVJlf6uwp9odE1ywoHXftqY/OVV1x4CamBoyBbHuOpk8b75k1pjYnVWVQWw4uVtu683NqT0bEYJWpOxK8camdhMdugCSwq7Su4kPnw3MrQfRh9ULCA2X0Qj5Mtfiwl1CJ3U9h/kI3JymswQe7JCDemKPUizt7O2Q8AMQzD5yHwr4jG27fAUcWf7mXEH2FJaLvy9aRAX/wYljpCru6QhZA2SEzL23woT3pvdcO/MlqcjRftNNTXV6RvGNKdzJ3UgZkKyt02nualBhiWB1KHeIruDRh2WcqpV4+RUopse9INUUlwhV0iNaymlyWTdzTo3X4xdvkl8GvqvOPa8P3MaaHDHm8P4yg/M96NibxKp11joNrAq1kK5t4+z3i53AppZWgoXpPvYDqbqYjVL+m4uq+zgFJI+U91HejFIStNZE2JqRfgEUntdzr2GCklrmfzlYdsFOz/NQoupSjbH3WQRU1gzgVrgu0U7yzPAPr1p+gFaDRiyaxnyOW+J1z8o9cAScl5h5dTLPfQPo5j34lDmb4couIis7Zy+xniwt+nubJurCb8RIUtULP5ZeQVeM5JROWqhaWdS4A+mLwyeP7IxOmOEv2ZQpn3I8sFqBltiilB0JcACow907U0pumPjA89CDhRzHXCK2HR9wP0qGLKcLwYqAwYTNxHTRglAmpgiG8IXlDPKWeZvIfK2/M1L4VkAMR+oo348TessESUEc/dEOKgQ1bjThO+ikaXim7SKkGtKy1Cw/llMfOf78jEsBR4i3ZhT4WV3Zwa5sdpF6F2Bqr7mCS5xN90yRxm5TTwTwr0IBaPQwn60j9CnfQin+PX342/8Ze4aHa0E0BnOpQjJK5n85VPyGLCKA60b5q43rnqZyXyW9t4YxPZM4aYdCBH354VJTMuAkG9QrfGcQSyJIUI5OwJdFXuVEcgIlBMNknNIILkaOe5mytmE+4wp07GvqjP03oR2k992jRgCZUe/hLoGn/x5SBg+B3h6aHn0Oqp/MSQ+ViNCN7fELvslPuD/cVP0AKoH58h8UNcdy4dwq6wXDcpzCSFMzx/FIf3lkNSAcucGohMb76hhgBb30css/bb879i9bZ+ybkvLPi6MWGqvMeuiXSI7kSYHD0HgniD8IJYs3Nz5XIoxSlvQWgRbmFDvNP5WB7BUiCejj1L1Ltd0x0rxn3fUzHtHvkO/t2NaIjjgP+XyIjh/WW8Drm6NIXJo+KwaMQVruOaIE2WW/OVg+FRz1X9k7XGz9lwpvIMzOyaID3ly5zPnNWM/inDh+3Sjq8+hYK5DZFI7ZZ54EVls/hVTbL/hAAW6plMtOK6rJkRsx2gLPFMR6pBL0B7GbtkhLzKHudVXYw20VoZpiAfA9V+16R6j7BVlRAVbhzqxYk+oayJllaiaINr0tmxodVZFK6LwMeySqgfo2pybFmtiw5bEKBIgynpvMP/yNcVp8k1+ZKN/D2UV1ju3US0MjUfJxaRxpHNLJVXVMHpVWL03y+mU5KeR4lTKiovw+CEeOIsPmLVrviAFy4qAHITAi8+4sQfpHHt7yYlEzQVPjIqiepjstUeBfVskGjRc2gCsGS2zkcqpfAkYirJggAgPn8pr7DM0vDe1jfzlbBLLaBidSg10jUZ1Vk5aQc21qjh+h9jMvXksMi2oRP9gEOGfBEG5GobE+rMjHiFISljX03VR2b7dXQUt7Pmjosn6PGcnrztWUB5BLh3spZsegqJ9IAzZiv2yKWhn1uran6gQvcNyr9S0iNErUQlBBQyM0xh6R9VnldA6rjDTgSrTVZ+xs5jA7UoJeAMQJSGnrknmSwloNwDjd1GaohpsRYrNmPBlHrMR9Dam92nGsalI3rA10atE0F317hc0JihHMCAN35JISGee0KgUS3cxcDT11h4Vq3ph43o60cTtxCd9RthR+J2itVdJ/xQy2/PtLXy7omnwASRszrDp/uTpgwIF3Y/oaznuMfwJwWpLGX75UeKZTxfNEljDPfORH7yi/OY+rfBerQxnpOMUlFvG70rmELOkkC0/bEj8NPLohMb/oXMHb0bUXeLAtXame/ZWe4+rJuRxfQc3WROQThZ1aKJBqPEplaKEAd/QK510+nk+Hu7qgHdCfJrFIw1NbpoF7G92lOQDpaWOhB6mQcnxBHGToLENjk4nBgMfDC+bv3vuGOG67F8j2DGGyhsRNLCMoJaZAsGOL3v4gs4MjCid5uiRMphqCoP2bZE0Ymwpr02K4LTj/uO6s6bcgX+yQnAIiy1Sq2vlu2tV8t9YDY3GbvSpJquGAtqjzUlZUkPCnINsSF+hzr9o/0XK/DbknsVVZUjJZD8acFrn0b23cAKaz8cTV5ITVvfNU8gn/ymDAH8klU9nZ1MAAEBVAQAAAAAAzzImQAgAAAAEc1vIGv8M/xL/JP89/0L/Qv9C/0L/y/8l/zT/N/9v/BSrIldlH5LyawwwcIKIqlV3Oxjwd2NnPKGy0cgdIFWxxXBITfGGxvX7sEO0UCw3bbJjoFB0q8l+nDjNyqxyeEIukOuhLEvlCI/dYKnpg0REleS5zu27TAJ6iyIJnIiJjNNQK04wYLVBztzNMdVE5WseZ0uS6JbOZB2mMojaRfJuX6eNLpvOUQtNHrt6e/WsUltD8r/GNdTzhw/EZv/JFmJAcN9MMiF4a0d79WECNlmbADKXSrYie6KfxJ8Ncr17MznyV11GiBJePwGKd1oDTrZwrnv4blXWlluaDRM+hN1SjRv4bs1ujsqNhn/4/xAeJLpn6ojiuRA2mcSQjcCtAqndzz77Q2E83Rwk/EI4hm3fL2Yvi20j/WKISwinzoqa53N7vW4Xk3w2ga+PXxLnqt9uz+bXA09DhGruX/CdiWMPrEbdnts9+zMSRrxDXRXXIXLuGgEZ6dcx+zATojiO14YF2G5+bLnVBjMGmeX0pj1ljWNDZEA57Na++PBqqKZX4B+VWRS1QWlSXTD1XgU2jhmCZseL9aFqApJNwmjyxGpuNHklb0oWMj1QZmj7/vZ1BFLCx/K5fi/fPKwEiBa9ZaL/jJPi40Yk1Nn2eLiPYI8HqUZpnC/pCFqHx5bHqUm3cv2wDpmhWzmqRP30XsrQwnYeL3HyWetAIpW24y5ciYuUymK291KSUTtZC5qjhn2L9HDdmO/92ObBeTJj/FOS0B0q2MAWNaJPE22ZdoVXJkMC1Qn4bWXvp8XEgsZQndeFebjl0WKJtAwwLpCMRgc6OJpnrB6upQ+CP86uMp0/bLU+MrFsFp/K1Gc67C7SI4eLJRjczGVbQL48xy/gxF6okscaY63fMkbCOP69wQOZQF+tKS6BLTNkK8jalflV8tzs7VtKGVbTNcIoeqlnT3UiENL9CuRVK914uiR6ySBBUF27bYZfofAzf6+OMn7AprYM9MmwXxCFth2cIq7xLnStQstkMShn1mtYdwzwvuPv53X4TlZgPhaUTmWBj5aLApReN/TUBFiHHCiJ9WiZkv+hXsf/vXaVrJLbLGcPV9KK4+PaPjvk0vu9N4ZdSVYWMa3XInWu/yFiCpfqH0yx81///PvomvHPx0asUiScqCERM0iXW9JOmCqZzxjqH62R5r4UhFgt/3CT7HwHzJBtp/M/yWR3oX8kKjkHTihX8KPWK3Hp8FFF6y0gdwlTSnX4jIklmzDIZgEDARcx2FjWkufOFmeUKgB3gaWtZv2BiyeePGL4QvK6Zxh7+bBJgoBrxOb5Zev2LXgJu+B0Zu9uHlkpPJVCDZy2NP5vAEZ+hkf/nv6hrlwIky959/W1+60qOhuag/qCPf4NmWee4fFXPiDaQI0IPiEKfKu0o4b2gutejdB9mPnQ677kCbAXrYVDESyR5EHLFBhTIInNidx+VYM7hIb8+JsMSKmS7GqOfabLSb9qdTMkL3hcJNBkxcnGnvfnTSEho5QCeuOMtFDaH9BghWQciJYRy2g3U5bJvRpQ/deiq5sCioduC1eDhPwT/5SuF0Hlo4bTGgaYPrBS89N859+3C7vKSbmR4LIF1CPMw2axrlIz39r6tJ4IZDVH7lUnkJQt6Cp3GMTJK0CQSGAVsUL0KLb7XIQuBKXm7Zs8S7RZoc/+B07N7R+nnhpW2l15jzFdlit4ySa5H3h0sbJFnQC7TsBqBfNHJTMQ8Bv+EcBk5iMzOJfuCThRGQV61+AycmWBzh+HYzj1LdBY21DfzJ0tKox7UfAxeLMrpH7Mv2KOxttTQJdkUz09CV/P4rQ/m+RDUJSLKT65EDv6yD6zXRU55kGJfH19kPmWPM4Ta/04GfyvnI9XRchw2TdWMzDKcwbbs184k6oUrgW7OmKhQF4KdpEjBCE8Odj99ViUS4wnfziL3/SO5j+3mU4uT6n+yC54GBshf1l5okXixptpW8PWDaUwNJ9s8OPo2vwFr1owsEU+HIid4H2g1pOvgJerYUsblZxiaYL5Byv/5cwxqYCY6w/b2sAfSHw/YtnvWL1pzUYZ01O3xDjy5jePD2+t6LT7eEWYfxlmCGc8rg/ho3oPiylpgkOej2d5kDkz7y4BrBniOm2+kCqoledSZ8UT5/mHG7yE3hA5FFft97XN4t9TtAc3ijCA7FaKEt5c0IIJaBHdrcNbBtXIT+5vBxISKJw7P8T5kbXmHGx/1Fn7U7rFmGa/uUeD18GMFeqwRo5MBIPqtm7EoJWeR1D16PHsxevw7My9M72tD52j4rzVzuBTdpoffZucCU0Ub11rBLG7vvo/BK/iId5tAtMxErCUBw7NjimwmlMuc9aj8teGJy0mEZJ6PQg0yfjqdjLr59RSmxkjVYVYG21pd6++2FGRufqyqxW7GjM+YSS0uPxBdoSDzSsZ0F0/d1SINioobt+cnH69/KCnhWasv28AZaOb8hVWuZcwDiQ4EXNLiQtkKqg9Ucuc/ySo0DTAQ0wZlUGdVF+xcvS92WXrTtF9AraXIjGIpODP2KuQszjy+B7AdEonesyesv0ny6PpqDzz2Vp/P3XAlA2BGNFCl2XdOtplgu4hZ3j5iZphG9CBCq8mi2/qJd/tfxeXkjgD4OWH//Bbb46o5bEMT3OCXUnTQ6ucdoyEQGMKrL1309jYV0Gu+5MAQOl63IpYhFf+piHZWWjbSLYgxbcV67HTI6dlK0poC/B/byKIie+QEQuUY2yvSptfmyjUtkMrLRulGswuwTKR/ENYo3cuqjGoJ2scSuoXHF9LuDKI1zVdHHBPu4Y6/+cBzYvxPfk1ei1XIefTv5uOF3neTYPIZsBKgxxfmPwUUm98pXO8PgwiE0KAjyRrskJNvod7Cf4qa5vQuIZDGlbanN3DloON9Lmdf9ZwOBXgrOsLXulNjMJN3qSXHXa9nDoTtnIqfmuLRcqd/IPZbsbm2qJlmbBEywXosnpbaOwrctzX4L4tVMdWUNWNAycNM3C2eW1AMs99ZUosoAZ4YIAYJEhp9jWlawGOzLwAl6qiDpxs+EdRhiNkflOCKu/m30i7Pi/aJvwkqp2EXvateydPkggjrhs4pP+UfHS/FccMdiyKhsmVRbPN/yNgxZuVGeTKWHHiOLecB9ARFNkf5D92NGZlZGz5jFtyRHSW0P7MC1r6SUpptW9gjNNIaLiXjHksD9qQ4y5JLrcq8Uavo1iK+uyZoiEGE59GXH0XLe4b3yYGy97IjPqOE7CZKtEzNCSyXZ7KOiUYMomV0zKOE/xwSn1dOCJClto5mjZ8AFJWajjqNWwAv4eDAL9VxjIhzGyi/cLutbAeh+AlWXmdyoWkYZcjVRkqC9y+txuL6tNeZOzKmTyocXFEmUZhSvgRdcfl83pKbyMxWzXr9XCJQlWfhVFWvouE/FEf9PSJ1LI/IHCKuR8ZMJhya2Me11Dk+lEm7zWG7WkmJXO9Bj7sv/+kQ8y9DQirt2UAYnVRhfl0Zj8c5GtX2z43juJEU3P3Iw9k45ppmzTAQbydqKIip+9wa0wx0uj46S2T3OSotp6kv3Vg4I1p1P+Tnj1bePXPr3O1XQJN6hJ+HYokz98b5vW2rIPOhRDgIXqdINNV+06OxWju7Tl5MMPYTbRl797jT6D80QjlEsSXIixUM7Ddj4kReWw9HOVTk7L6zpqrpyWA5yqbOLni/aee7J86fsOWvAqrkX3YFyhG3yRtl1YzY2oAExA5ZrGiPvc+jQgU3UU0VFRWtKrSH3jjYz0G2ihtjAJri3L+pmg5dQrEuig+0AGki6yH0T1X1lb+7cVi+xNE6/JX2QdJaw1FLk4+BF6UmuE9BHaGb9gK4o0KDp/HS82IVfrW4FWrD7P9r56JFf/fQdVFZsEDT+tb/EGFjhQWC4SuuXoVwj6rRNrAxDj9Oc71W07YR2zj0j0uDDWBFIC8IzhSmyvFsS5VElVqqIQejhmW9ueqZm50Z5fl4ezvOidbKIYUBpKdFmS1s8qU2du/wCmQlhGCpGRLu4HyMgl9hQv7aVQZdaaLCej8aINI9xBelYco76GayJtUs+zpqS54kz3X63wO0xFKt0RtkBXeRCc3IyIc87olf4uTfJUwnwHAdpzRmqoyZob1IMQElSNMnlZU5Y4dJZKHfnepXLCCb2LzvddE8kNlQSvW/SZqToHKb9EthOT44jePskDS39vHr4klLAe8cHVbM9jgXGPTPmlxmuBG/TCdTg5eVB6bDtUBR75lNDK7iZ1T89U9MHkw7rn3cg2h/k8GFEwQY/wYKFXzPfq0g0d0Mcn8kCkJPCFBLHtQnOB5VQTpH9G2NxJaOZPy47v/8Uo8b9cXMROmp207ggs/Jy6e6L5Mt97lXXFwHI4i5JGGvZg8Fx8vu8f5T3x1VMw1wN1PX3kOBraUFthA5VAFG/mRWCnFuGDxlRSOPHMfi2/pKLbbepKfQ0U0cfPpmRD04td7/EJm2NqX7a9JjXuMMX8JCAER1rpd0iuNRXxULRAzTKMvgpF61vnFBeKPFf4UmK2gwyZo15MlbO9WJXmt9NGoDVqm5bM0v9K7SuGSp74Yi4BAYYwJ/qa+vnFpBq9p9+Kug6/TLxVq52dHFB0IDAETQIIuX1fk4S5mKvt7aAcFCoUUwVAQlb6n5MaXAglClMbi2dMGDFevyEQVmvbOpnOtWRJSZXGmhvT8+6qRn2grqmNwg82JxcZS6tZZuupuCBcXwy3YDmfBdk8Px+4o7apambpxllnvzD47i3E0S65rR0zca7D5QokSaju7zUqauLv9xWroFYgvaz/8/yOh/Hj/XJIXoTk9ojOvPtiiD6mgBKkc2cdgDN6Wh0DKJl1t7IHxLGcdY9+XoAtDi38SKiQa7CWvx1CXWpgtVoJMlGNmZ5QYUe7AYpmzhBH8LSvDzpLv+Un2crHhNoGSyKfVlPRK+LU+Qh+DtsG4VzViqIiO53d6YB5NtaJ2iqTtS/f6oC/LgLscHBBcfuU64USNYsGRcNUfYkcUcBWnWa24FjlV2kyi3NjA/K3OZT2DYyFzshVY5QkmvZ5yZvMX9fWW0XAtIcVSFKjIYd/bKSFzUqv7g1mGHpvH9OtvvmnC7TgF/OYsCOhFvvHw87o2twkZrBKPrR95bYJPpu2pvqqJanz9QXBLO9ZMubPSXk37daLtyu2jBrLh117SHH2LKA9shLCTk14PLHEpOTp+gKwrWj16tUUEVH94FWTZrBZFB1kqIWvfBV4RApmdmxF/F0rmvjqWIGfdW+Vg1r5ilRolWH6YHtjKnUcyO0R1rNQPlVfN15sgV8oj2PMjSfhbEVOGAC47b9S5j4I8tgfTg7890j8ozIu9rX5cjOQusJQYDNbT+jn35xax6Fd+78u2aHNJcBp+AX4t0kMdjX2T7cVYKAcLM6BHbFCjxLufL2kLk43xyLD8GahDjVtmMexl5COJaPjH06UhEb3/X9cxWYCfxXbtXD+VLtC38XuO2JfCIwr1vrUvoOn2yTpzrMs7PSI4YoQEupdEVpw77Rnp4OOzgG6un5XrgM2w5lFLntI8VGB/gortK78d2cCgPv2dBZayVMXMDCZVX5gJCJRhcpqUT2dnUwAAAIYBAAAAAADPMiZACQAAAGkqla8a/+n/NP8z/y7/LP8w/6f/Kv8o/yr/MP80/x/8cFqOeFu7RUK5NoHU5QSMiNEt0iXd4WRBcnVGSPmgyndytb6ijjae+PA2XyBkxgk3ACZB5YmmCldsmmeJ1TY7HA+80Ens7nUu1jvmw1pftVLSYr+3rXXaPYU81PgCd25dhFTFg6JcvznXj9BC3DXAaGpULPY8gw4BLtVODIKuPj05drctArKT+1n30gIyHQ96Ybab1GizNUhfGc+gpdyaBUR589q0oml1bYst95+c6cofgvgOO1UYUEqQA3JuBeeDZtTZMIPMTxVzeF/3FIAm8hlTezsDSGvSyZiB+IzsJSJlgjEPUwZxjahnZT2Rwg7xMQsWvm9k4F+wtXo3xtePDNneP1R8G47u/KuFnpxgl33UmMOA7bXXs+NJr2d0dUSsB5+YoqwbqjHDaMrZz6N5LLWEJQdKhCHiHjM/nmCuukqdKvFhvepyXPvNs+T2nc9jAW8ZCRzhGPbErgPgHZtHQSYa/jjCng3rRrLceCudb3JXbB/McVygk7AdplxNLHrN/nzll14evmJHBnywDAAHRxdliijNxjTblACqEaOR27KRhhkShVKe5GRcO3kIVPeTqBVCmRcC94viP/UuWLBFPnZRxwFgVRT8SqEQl6DwOhRvgsnh8cdws5q0u2yzGxL/wmBV/ENwtvxSl+uIgb6rRRXQ4Pt0ThCjSLuM280o2zVLkWeRs2hdiZ5VfsRwFdp1oDxWAgvsibUJpsIlDDFhnXZZ002YAKBIRCaiGl1DpJA2iCyEnsVQtw7Mv1/+awkGGSU8ZPB+Ak/SxAa9tNgK+ShszeI6wOusf7IOvG05NKCMCxKS0DzeYhv87ZDTTTcOroDKHlLVsmnvoleYXhvHI9bKY8ze8AA9ZthvIllJYsMUD0aHQ8dE3/sYWHWx/x79Zxsu07iRFVYXQusZLajt7bkzZR+wTQFHSXY3It64mCym/u9/KAJ0eTTyhiCuivXgVXQXr+mk5pcv24Az7xhPvhByrIdqySNGPGSi/bCGuYS2/Yp9xmKfxCilhWhdd304fmbnz4wHoRnqXcoZ9RlNygy6msA6LFxSU4f8QYaA5hjMeC8V3ecKkA1EJvF315sOS4DDEB28Fu+6dItEfylMMJ6FcAMyYkKmqToQg0D+/yxEn2la51dIuQ9/8OLWlulX284sXrH8k5uC+SZRAm4qgoFzbe4qPyifFfDubjXVv2cbKqC3R/5xBW8lpCsOyw223igW6fUWOlkvddk9MwXkxgkLpt1P/9kqvqHBbATWElel6mp+UCoHDjIfZaU+Y0jmKU1utImJifBI/uqeXTSkNFqZHLgC5nCRoTjsTOnEFsmBDEVnQGaLY/gs7uTGIv+tN7YoC/4JaKMeQ0uwEr/D2K9nUheR9Q63mUhRDVdBIzAU2HBfx99vpiyzA/40++NGm8h8zRbMOuwDaOW4iw7ujjqOMpVeYK8Y2F8jI81oVwtCxziRdX9K9K93QK/8FdEMAYndQOkQmDc0SOIluwa3FuzrSaK4FUYAJ+7MBsVN/riIV/YF8lcF+Z391Hax46VNhEYjelL2FTOloYXC+naf1g330ZOdKM7fD6t/CEhSCDxbhM+poHQKYuwgrOACfrb0buAM9OCoToMJBp4upx5CRxNpGjetgLvbhkeNS81FEkX0QNq66V610vxvRptIgufHyzjIZXm6VmimQuTG6hLm8VbJtNMyLanHD4IEMCEM0kFnjRg9fZ+avMrem9E8ma4GrbjkS0Il6vU25Svx0EV/pjWXVh+1YGMYQS+DGsp99rFTPfuyOcSvSks1Cwygb4+6KQGurrPp0QNf9bjyKS+jLHK2GjrWAWDM35diDl56OZz+1CKBNA+X+xJfnulRlUTDnt3Ig1y1hd6a/BSqzedBXH6KkAjZjoKfFfllsNDr7pH54BM04AxJZj7W+ZRPxV5o2lyhDJOhuDyC0tSzNHdKIbF/1W7Xb1JCYejYJHr0o8hQPwxyzM7A8be9I2U14F2nuRNs6OG9690POPGaJImiTgSQ/tuSzZe9qCX5KdI9U/erhFLwO3l5y/9MOCjitXVc8MmaVLkgxCrmV5/1/Qxl/vGxpbkwzVJPChAmb1sCRHCvHPwptkehSqUAX3RrECIoTU5G6m1JYkuAO9XnFfzKLi+HLt/Wd5TLiTgKcYVWo2bXRVkP1rNZGIYFMc4lW03NZe4TF42Q49M2AwoybGYLaTTYuaSH6v4Q+tLZKLUSxQTr24H8LC6f60VNeu2gVfMmD+VQF007t+bkCzp2NzxWct8yO5X8EKXhKkT/qSO/KYeP0QqL3jZUfnhiKKoyKoHpdgra3EYR8lyyl3EjZ72jPNfWjgbqxx+BOROZB9ZG2WLhOeZ1hOjq+YtB34l3PfJnt6I7+VZJSWJ7nafpbpnv/sk5rIuyc+A0bbwicd6nJCSRmM5OzK5HUUR3Qgh3uD7rtdwhNuSQEywMUrXlPAwN/xGEmBCyl2HYgZjNiaw9V8wu8lSbIWxLzgZJkC1hQ/6AoI4B8cmYA0MAyMKjOrD15xshimcGc7aFFuDAUoqq7TUdjUqbnZiil9S27i1Tk/DMMFjI9yEyaNUQqWGDLGjxqXrLYWw11ljiPlr1URrvf02csKsgChmrkVI7YnEB3E8j5R9O0xyEmrwa+FBHD6TiffnpzwJ4mKUny0kCHuSUUNrGxof8b/9mhrTWVle9Apya0fNxzxT7PwR9o4fRJJcsN1PDLoixFUjJDmnGScps3RMgu23URs819knbck+ZKEeBftImFszP64FUGP0KDHCk87yYjme8DNyE8th4BhK//pdIjEEobMvhYeERgxD2G8VI+bIQ+9xz8+KfYaUmUzy5tyMsBsHOrwK6g1060dFZnrM3MZL9jiUzdJ31M4L5tZJLD/4TYeJj5fLWJV2ZR+s58EdNKlOJ2g6mcqrcxXvyN6raNjshlQR7dTFQjM2quYIdfY+Zef6IWRLbK65coxBPJ6auWw9pjRGjW68ZblbhBgvZNy8XWz9j0Nh2dC9fnHOH5Hq47LpVTEGVuPHKV3CFyjw3Buug5ruQcgl0hOEm2eQ41rwNwqfp/nD0K0nCR87TWk441qQbXa25BOJmhLU+MbaeGAZxNMAfzHnGaJwHRWdPDCSN1J100zX/L+TuIWlllYCfmPjKTCc7EdeEYvBhQ93YtpX07s+AaNbWWHrb7GGbHOssCAOcCA6kQnq0ZtS0T6jCL8Qd/HwDLKQ6Ie4TqO5S7E5ENU8da/wULvTBnxS/ZsWl4i9U1HJZnOoD0YWRtvS1QiVAvFDRvA6rfzbm3BsWPlr8M7H2kh2/1FPdKQuBXo4Qjxiln5Ymh4HCEBfr0OZBPOahYDt6w7Exa/Qk6LcJHpOuR08tX5h6uMDKVo7MaETsM31qlBRbjett0fOX05cJZCatof9WvnuLAg9j0IRlrNDsxR4LvsnEbFdcPE/O0kj8T9jHcLC4vrVi7jU++L8iao6fEcsgngXBVWrlDF/lIjLeVfIe01VVYQ0ojzkulHThif9GyPXb68NbOu7IMPybOTulGoNrN6SjAVzLySzGU5WttRzAg+bzvtDmzS66ENoFvs1TT76FBedfFraKJdjGmyuOHRnEtY1CYGwzSQlMFywnGRGUOYmxp+adZ7ON1fwBzjEjKY8T0o4inz+iFZPRkRkI3OTh4vSTYfRSnyjjNo2om7eTwNYFpWVDgZTaTv6Yc1VKUXilluw2xkYPco61Cbcy1rQQWpkQNAC5V02xIl2qz6WD4H+F6LRcEklQLJNOq4eVroM2Agw5ASp2X7gi8P/2AyHEkvjhd/mxohqecazoSWBj2baS0zOaVTI28XTVMhh4F8LTN4skB16zXaUYgy2QPFWtBF4I3emduMUDVrWXP3V6uXDsfoSzhtA655sgfBrEX6zpOzvbVJtPDJxPZPicsvHEVOAqA6HenI9upuh8ED1jWwIOOrxt2YqoOXwDN/8Til9FfWOwFmQyd/jjR9OQReQhuLfcS34mc6XExJVfAig+CQBJKrJMecOdN3eyRLwB2hz8LoBMCGy8aNfehoEHdZpeIP18oUVbBZZ4zyAOliDgyEOsIAOrPCEDo0NRVxtS2hYAsh70FFfwkSh8+Okx2a81bCgc0xLM3uVG0hrevgoSJtcpxuvE4Sywd24aeyRptlDn6WYW1fPGXBMRcnVwnm0IHKstOqJ18/fkmGKU+TNm7YnsFfW/L5AUH4yceFmceUy7A4nV1saBwiS+TGMEICTEN3hmWWCbnuElPh7xBcMrWfTqb/q1g3N/C98JXMbLNvEziWfvcdI3ukCymzEcwmnPwVUkdzGeQkJf7YIJ53c9YOxUrzVN1OAnlNfMqtJWFJOto07kUHMSKNBTnDRU91+PXJULqwuVTzG6i/ZMleOuXS/kvLTVtmUY6kxOEp+EfRAHclpMod8CKMr8AE6gcTm9olNlSugamqwlUE/86lVBODm6KxgAXVbKStOJFvXwYadHEBzlriw15zAVtOHj7yRScO5mrhbL5XCWCvXyNtdy6cxuqmUvNeHuRkz369+aWBWjLZEw4YGyZd/qrKsCCs6cmH41KqlEWLRuTHQpFkQ1adXLH3INEulT66ba8TiBGbHhv5dOb9gIkhL8pAC75nX+ziaDQOkrg46ztHD3T47ZfRbRYtNhRQR7PvbL8aP0Zrf5tmhsLYaQBMeaGy6P1ECmXStYAuKcQ/5cwcpSNImRIGG5LCywCxjJeKdgoCaHBOmbTfCGZEXiCYsaROBFBU8WK94M2LVvUkOVP+VWbS+PFU9tOZAiFCzNX/mgVmmqoH2TKuLpb8DTVpwNzdlLnE3JyH2PCWnYqMn8FgaK8RkBNNcBM2fJbA7jC06liLmWCdzvxPIzHsjVFL5iJ/3Rf7jDC3DlwqYA+lqvWDaSYHybdCCPSyLtH7Ac6ntzsV12Ow4e4ScBSb7etIekdfM+ctA2XkAAoH9UmT/c0AIzpxzRQCY3lunGZu8e1gYJCONez5QqUkkcot3WkajPWaVdBm4TdWjM4ZlDlBZK3EajsoGppFXaaFx/8NwVV0eSKiIAQziTgen9QivDsfAeBJOm4bBhIbXRpV9/O5TOCcjBYJsCKrUE2m8jGaIJiGezO4+8CVEYsnrj0RbkiOAhupdFZ45F+Aw95d/hiMB72T76TH3VWedR9WiP5bjq8F4sD8iQ6Rbe+5o/BDwurobV8BODdUcmgLtQZLn4lv9DD4BtkqDkdNFeYnfH9y6Ug922/BP/nxf/FlHkl8pb9wrRHDl/smRkReZct3aDS3v6qPJihinRdgBy1yVo9zjdRDGXHZkOr3sk2uufDn3+qLvBNBqvbMeh33IAh1A1iwrhJcULTAl/Aav1Mmw5LXywzrcOWRqGoo1ZewffBZOuIMgbWt9U1/xF9YyjKMQA1gFSvbb91KOEMk8IwApuUMpJS5VURP+jqubPKOQ58CPqvs0iMmMdMND81NYlvlG5Y7zkLDO6Ppx16T9u5o3OVEJbqPr49pG82gp6xHrNnBU2sGuZ90RRq7dXrs95h788tw1hCRm/c9mleFX+B1pPwO6ha958QcmDwmRtqiXg8qKTbkLnl5mnJOPfVEXJ67Z46Nwel+VzLqCpC7YhIliDROn4o09nZ1MAAMC2AQAAAAAAzzImQAoAAADzkTSTGv8a/8X/L/9V/yz/Mv8v/2v/kf80/zT/Nf86/BO7uFVIB9Y1o0jxXFaG7CXwDew8vsuSSkIb0LgxUIMK/FENXe5RqmdlHGqwfuOzdz6nuGYp5WFKZHNl40l6uzr2YX+0idbqrhYAzuv1cVRRW6jccnMbubTdjvs16EfKmfGLQHI1Sw/ddjRTy+74ariykrHZSU+iR3YuSKw2e3PfykOb0xG39mDc1retv70L4BjxbZLzOyqRK8v5v/cpicTxSOoJx+MeutUbITlCsWy+S2oX8/t1AclO2lg/PwsASJMy4ZG6ZgGhFRZj+nfnIbi35phENEaoq4j6EY27NbJv/BSHdxVR26GMWDzgdCbFbE8ppf/zTeETer4Wk4w/gFHm70wIuqe+Zy+todpmNpvQMOA/48wH8Fr8fjecTXpeBtKXGAP0ykfSAYrJGuVibAl5TxUUfgYFdYYgmKsMGsft4KaO576dtawuIKFDzFyFh7vT5KwxVz/c1B+xiYmM6x8kNGFIyetUIEbZzN8ZmFc4HH3GXaNgz9s0hRDRfWutJXnukuKJPonMYKwdw0f5k7Kx+OTkbJSTo0SfxIl99fn7Ao2Zd8PW3XsyCslQKlVZ1TqhxwVdlOkbqvlEyvMwzTwi/AH9k7fLIpztSuU7DYj9QRoYzrFuEyuUBHi0Xfj0IDVg41guwCUagsZcT94vRvYvtGhJCGeadSjSgPp9Te46tnTtuRLEeh+h4c/j8OiH6hCz6u1RTcDsiYKltdzZm5Omo5/BIBafVxQ5cpQ89+xIkKwEGcqZbxK3kNhnRbRtTMrHbLsdVvWc5Cna1jH/2jQ6IzPeI1Xxn5IfFiOupUPxYgh8CQQ7sMjIiRBRCwgFMgEJrLAQi809Z/Ce0VA1xwahi/pc+capekESRX3MpsdLHFGi2eBjYsK2Awdu6u5u9Z7dpxGcY/niAF6hSG2JGkcm8k0Hoe0lMABaStrK44HYbcMGa8bOOACAnr8NjWAHLt8dkjxXoT5W3uT5P/xTupcF0L5SMnulT765C6rPcW1Xq6XReouzbIFh4Wl3L6EOg9zqRZ1hkPrj5r443iMtDRCUK2iqbXcCbsQKRf/Fl7ogXiL/eZ0PMmX9R1I5SoP7/ADfCBEGe+o7sb7EtX6Vnmol2egv7GH1yPce3Ek5eK+gv6bFXCnPF6D7+V6Vr62e2rGB6edCMUAN6gtKwtYRCpyGkWN8FM8jeMm5gBl3pnxmN6Us7xifqniU3F2YjPghCuFHwDac31Tak94kRlqJb0V7fG1u0q8yaFuNTi5ReiQBK5f9tq7rC5Xg7GZLK9d3G2KEVeWm6n6niTCsFVKUZrIGpBVXsDiQsLEnN4NOzxUdfgtZpefooQFOXx6QkclUYymROtqFW1XKVTu84eYAkkSMrjx3abEg0GSt/Bdc9KDYD86Vsr16MbPF3Eawqt9/p+ddl/xNmOMtk0kqoGjodB2uhn/2m9i3PG7IJIHTobnBhIVK1FYiFX7tnqg7fEUFrQEqARsPbTQ/rAWnPcWLi3yEjYATVaC+SkgUgNAxDXwMyA/0sNrQCcsZEJHPaSFkHiOh8hMhaPMgDf6jSINPzBiLAN4mRWDJS78ESWiqmGRGYKzaLeZyWGd1Gr3scepJSVg6CsHhsxUEoy2AzsU0xvjjJ3ZYbCElgTjbyKsd0e671bVe2Q+lhPEfKOci505yjiHvbBnvFzT7QCF6d08zznlPSp4W/ymrJ6pXej48+zynBEXuvO5RVcKnB7EPAsgkHXfDQIWmsbrEiPX9VMDRLydbWECzcmvymWkrSGFMKgILLodW5/JvRwcT+GTyGz1DgBKcBJZCxV8WKVIbldcjAElAots8JJzdF+fW9g6Cpfz9a1hflhib9rQaCq4s8TvpHtonrdaphjfcVLs7pWAPSIVb/derSzJ3KPEAM7YiW636n1dhZ/m+cby0MjeVxdjQqSO/fNeikRept/iJkEgf5VA6qWWd5R9x38Qpeka18XepxfIGxN/ocklsTvXT6NgIg7o6P8D8ltgIF9rzamY9mklwwQearTd6f1WJLCvY1TnZhcUs/On7XphRa76QTdFost49bxRkXKU1wnf82UUCsq2GAolX2jb/2S/HLqLxxfiNhNDIR3V6+MTBi7V/PdInBuR4EuVApIDXYdGGeYIa1dsZCUNrnNAIS4hx/J5PKZUJNHt94qKuXSkinFojIwMQH0cOT6KUeo8Ylb2Blff4pPHPnYBjwp4e6hBWqsBbqslIBA7j9ziRS+WB/ABRpbc8Ksqf26sAtq4fKeUhvKvi9vk0/NE6eNkGD3hrTLe3oAznUAIBi9i/aNZVTQ2rnIqKnqikn8hU97p6FNs8pZyyUgY6UlJANcXCBWyZgCFrHRsJEaHUDC8S2Wn2mvZaDNfOTKe92HSEFDtFCIPH9irnx20l1uBizB7r5TBnLMphu4zoKLeQ+HG1S889iiAjw6PcKdpBOMCI140Ar8zahkqjIgMN4Wo9FHOimzFelkslDNu1jupU70CwIP6f1XL1fmGW92fnCWZz8vQ1i5zRivd3aZA9syCup5jePE3EgxaLQRRYkSWsH3LxZK5poWbzVujIy6fIUm9GiHlCYg1GGTM2HmIsB2koqXiq+cauJGeQH5Il5erWmZEIY4/uKlFWdc1Th5dpT8yUBX7prS38AUg1WzzG38IeqiNxcJo5w3rsOyZW/QDnPmMzSHCAFCqXrsZsjNim2Pf5eD1x1yFkd4lN0tENyv2pcwZfKDbS4cXTwB0E6TcwHDhPdwHLmt+Tfmf0G0dEMKwIXYUpmd0B/QcS2UZbS6LUfaQnC1LVX0CZw4AptpHvtP0TtBxtZfEncnpSoIaiKWXMOb5Nq1eqHht84H5wcm0VW/q8nweODptQS7Kqtyjk9Qvx2yy5TKaH6sDUw1ZilprXhVSv0P5HQTXq2l6cRe8h1xnm5rjRxuQsnG75HYmvWknHn54gt3ryS82g+QNCM9L5+Fa/CtkXJEy/Kv8Ov8SkpGJe0faRdwkw7REUp7yyakOHhVsXNBEotJ6FID4QUcpqoRLpKPt8JxLLv7EeZzKnU7B5UfwCWRu7k35Cb4F8NSego4asdTgt4yXsxanLA7TXttKdSAAMhd4gVrjyS6pSXOCuFCroTibHyYM8YfMDpvMvhWwnSJnSfriO8gGdV2rKBpQEccNEW7DUXOsVKG6VE/ZwZHjzLMZ7OwraJ5gBoQtTgF013sKasdtCavQwkVh3/JE11TntSXnCU3vs+zd70NtbnEXzVb6gIrISSqeoXI6V+d6ZmcBF0XgjVIVyJ+TgB7Rn9Xg9By1bVrM4+91IaIdz1OClHv6NqAhtr67oZkCPLQw2fmpvrfAx+S0w5eRTt6n953aMpSHwfJOS/ijgPBD6mjrNG1lHhiwkUI/0NbdBrFSkZbLOIPHrwGP+EAp6i6tchMkWnzUWgJv7tguA0Fbarwq7U7QZrII3c8Uw0pTt7sGghu8TaeXn4Q0bcIiMe0pvqAZEoYcv+xWSm4jd4pJ/fQhvijkm4PWoGgZQ1uCmvZPr/XPlurBF7CkA/H4BR1cvsR6/HmE1y4FCPsNrNtab2WSEdYn3wWnutqW0c2ofcz6rFCGuA9vdetBlPqjtQL6+/NnD8Q3F9G3Myr1pgzTp37ypN9Rssbbth0XZLUllXQ4ITuF24d+HHgXWod82kYncpTdIyMzYLfoJY7JF10fEGEIoXXsLACbLhYfwGF7nvLOsyyPHkbm+E69Yr1pHAoV1sQRystzh5QP44YNQZcdRna/K227kO0tq90o5Qt+1s9fX90v2HW21Zs8kkt4ndnGIo/GncZdDF0RHgcqNwxlHmTKJ/cQ/kpibzWNhVkyWqyxBXjLZ2Xh1F0a3iqDFmwOcmFUqITmFM0cnS3lqMaXPYAmsqTBHHjJT7qh7j5ssjLXGReh93NFgf+kz6n6jfVSlI8GxzuCBe5h0vP0HHxYXnGb/YsWBKzWP/8s6NPDkoz9WIJmsf5dqtoD3NWiKZWYeg5Z6gpAI7RmVfYdGBAIFI1MSVU9h/byLzqschPYyUfBBTFbWwUUQEiyZh65WSsbXJZhh/IIUUlJgNPxDjxE69/VgxY4USIgb0zhlAQGqwXwpMDB0jts1y/1EclCdnWu05NGAXInGtMmFJDnM5InlTjl2gr1j+crQZ/8/AcKzulrNXIsZV157CHn6wAeQAatga0DpHcyOuqNWuUh9TA+bk4lUvgA6u2dxLrWkKffaidtnrm8sp/yrUBiRwuTQACddKVRojU4L380lMJxi0fr/yZqVMUV15UtmWqtIyNmy5zSdgPe/HvNaakbxr3Q9DpL7VvSEhd8tIo5JUfJ3inFJ+WQrypd9ic312v9BXe3cNa32c1AmuXtu0psAsmNOCR/bIQTeFPnkiXU6TLLNMdHhY39Ihxm52DpCd3nZq9eJ6GFyAuI/jmyVM2odXi2P77MMNnwiSANeElkVYDT0V/MIC+kmgyiq5uVNw5aPzw38Mi1C9U4Dg57xFax0sK4fau7ogg2TOs44UCC5LfuSKhorUhX9/4ZM2VwL2aCy+Z8D+NahMXOgxNMZGshlxAFtgrftblnUe4zTap5RuCh74KFtOLKGX/HBcKUbiFgvh1FE9kBMCbA95uK/P2nsKpOHh+flNVsfCINBjeLCnrz01hFu2TS7QqZ/wWVqqmz+sLHlJPqrpzvo1cVjMMkb3dMkLYX0ZN6UHV05fsnm0dGtxkPeCWBE8bR4S5RCEq/fys6TQWtunDHWY3ZkLpLkjzfcazZytvjvtN9HXVhwAT9sWRJ/T1g7MEZh5jq+2b0WEhlh+aSaWU/Au5VmkF/uR7pyGNxFvLe4or9P8R+yk/FPZzTAy/yy4ebuE3cfgDhEP1nIdBmt8/8luOc7ar8UbMOdHYbY/BHBIsvFOplFQQG7w5pf+RlnxN49+Uphpjf1chJUNIzMhP3KVr20Dss+KOp/+entJaxgdXvv45iv6Xv6fPnxS/j9SPmNJwdL1VSJvOIi2mH58UTepoqpcp059miwnJkn9UnTc7eWF3+hr04FoR3pYZKn68a63UJ3y7tjtYOszGPm5bfkL4Emf+a5ePcEpWdO/SXkiR/zmRAi9dsWyhV5KejDQsml/LiuW7m150pAtkzWxh3d81HZTiA6qDSr1/PHs3FT2METyAX+MxaIEz/gLJ/zJ+PBl5TZ+2mM6iZhxlVFSW6etNNwld5Mz9Ll4ZjkGpQCDNs7IpGaDdaDP+gTxH5FeBWx4ga2l0YS8ugNxezKThGVo41IwYmkrLw6Af4+mYhWpt4amtIDy8d4abUXvZWr5Y/8Q6NJ96OPjIdHOskGvhM2zjDP+MIcQgCDgwmG0b40PMWNCaFJUZQ9G/08o/sL9YGsYveXl+pczylb246Ya+GN8ohWM5/AYgXLkkj4FPDn1TK+Z5guyROiyFQXaV4v83LBiwiVvtEZ5fQecu4Kfd2vGjt8aldyKPqY2oxbEhn5zzVbMX01O6u3KOVKctpw+3r4apzw4sBBMBVz4fuRZRJllZjJ8Phdq8jNe139C6ylxefmhu/Y0A4n3qo0EzYfvyeQqYQkhNQFq2EhygjLSw6KxFsnN9RpCys4jQmUqRMiJQOM0RicUxqV7ZP89fcwQKjvrUISJtSHdnuzz9U1YBlMJvXjrj5E4mXb+xS58ZXVYX27BBTJ6lQ5tNDRDVc5SalWOj6gb2etLu5Q6wbNkJvDFbVomol761b8T2dnUwAAQOsBAAAAAADPMiZACwAAAGzgBSgc/zb/Mv8y/zX/Of8w/y7/K/8e/xP/Df86/0L/QvwBOMzX2gkM2rP9tGMJnvIP1M1o6VW5h9m/gER+1AgEwSwj82sBckOvKvgqdMvrbFKSMn4F0ngrbRQzrw//Ev7nnoH7uKE99KZJSKr5MwzR6orzJT2pWeTdEFsMR9JZRNMs2fhnCPgDw25hSUhLrfDjWzE6t0EaSxBTf7+1mi1C7zuZrpDmQIr6X0goNLufcaTdhcCzjYTyP2y0vk/qBlIZzS9FaR9lJOB/yhg7uLfiqFMCEXRTwf4oGsvA54+jxJ5kLD7ys+ZN33FyCqsRvhpAvLL/Ns6+5keQtumsHccDY+4nf13rNHWmJGfhVFRjh3lUmoGSkY2uqBkmsKS/E8rWSx9/fMbOVV1le3DkZeNCZjS1eXHJ+PbxOX0hUp2GVfby2AwQn13ceeARe0jgh0BtlDZkJfwEKdfZpF0bjKTONVktyInv66UujbkxUDRA7XC0X/JRmEdXdavM+/n4ZxlKAzvUbG3D4k/CHl6D3XWk33ZobkqXndp/33nYtF3TSYJKRFjuNsZc/CuSwpu7DwrKJZKpS9NfHQXOIvDNE6jf0F/Gds+SaN/cesqp51kRRvgXd+RWd8sDOx8+7h1jmgi5ghNfgj6GPAVb+wUuMr9/UWxrVDgsuJG0UjAtYjYDS0Mx/W+YzFIetpbbZSpeqzf7P73wgiUaj3iIj+75tq5BOYmqwq/A+kUL1qazVJvZJLKsdcEuCa+H3qLu3R5yzCd4jb0gZb8agMB+haWay2cBuUGAWgJfwr9ZkDHhijfMlQDlCrN8Dosuse0VRf43IdLWVjMRInDVeNFhw+Yqf1t2v7HZS8j4/BP4endioBT+QF7liRiVbeekO/sJnKNOOGAHXjloylOzqNJvX3IGRnAN+GFgbotoCOMUiOKVK8Jy1wLMd72By8SoPToLYkIbtX5bTy9RYYFuqDXeVocmbNfWJSNNBJAJ60NY8CLZ/Ym54u2lYnLwGhQblvDyIV73MiIIOiELsZ6UIvpwsPRxEOoWI5LMI6uTPv11eoVF75zSJH3LKigXQcgba7XVLXq/g2pbKLBFI266MAiaOIPmFNJ94wX5F48Jz1hsqfHVcEiCSDaUWdX35B99dXOmKNoNP6cU9TiisoeAzwJQ5069u/yMBKfRwbIlZbsIPnSLPAD2oiadDYQRSa39LvjHXk6Y2Sni03V396XioCUBS4nO3u0Vlj0pecz209Y/xmtBy69RnyE97h9b/eH8QjJWwgNExgYz00S/eQoVrxd/EpRCVTK2HkOHrUyN8yIFJSYGrQhIubly0dpeqbF3egi6TtUIql/XuTeEKKGDA9uij1ID8R0CVgHquIA3uSaGn/haqktYQeQjGHYwbuYW4WX5PctmX/HXqxpRfWdOyf76qjJ6JXf4+e8FqKPZmf2ivlEN/+SrFC9OZImq6ApTTNjQ7Z+xlsqQNTEsz1xTc67DadAdXdt9aiEsbB1a2ia6sSUqYhICOjsMYmfkJ+f76Gf0N34YdR2bF+DuFXy1QcMgnX/iHC3Wcn9h9GrwUmLi4MDkEJKK6CG19ObkUjLc/H7EFXeGwNvICbgPejEG0Z7xwlSZPg7ioSRKSTq6QjvBPifDYrSYNTYt4uz2gRFmjVD2O2M9ok9mr8ApZ0x5PD5ZIfwFugoruCm4Ig65fEeXg2JNkaimYZSWdKKtA0yIYn3tqgIXNKD1eN1vGRHY77fF142kC7XsWB+YnsWivjBdDft4NLXxHI8oTbORslE8p2yNnNGSDaM865hnYadVhiIKDDjorLhOCR4m37JIywHTpGf+cy49pKm7cu0sP77tU9/AbFO/z8TWkzLuzlwpYuwx3Gubo+4zaWsHu0plr5PClXt17J4AbglAMKwQJzq/DBmn7VxNNcM6w9/TdkPrHUz9659z2x8OA4vKqCjrwC8KEzm8YEewPNa3VGuKS6xKhSDXg/lV+1cQQO6TiV4tMQ+Tp49qDExxWXKJ0tmGTamCmAWBYE8HCfRWtbnprABZzwOTKs0gMoIl2zXx2/wZYSIE0Isotx33KjTq7QSS8eo9o9RDWvRya3YHKfxBhW255QgnbwUMEX8REo0NuoxvgskCReQmf60/7DTOI3ES/Kd7FN6KPJ61CHvM5l+8KLKPtUh7en2ryhaDiygT0ax4crkmAH8bZJtcRq8mrItsOuLd/K+OS731cveab3CKYi3epHNlY3rP6Y6AFGuJiKCiy9jBpsvSX7KTIBGlxjLAWnralXRbKvRRUG/G+aJqrzHCfPHv01I8ObESE6YjOX7K15Ps7z7klrbxVuW/64akBoXBwBWSPbnnZKMZKAMYizv0mBkz4TkP1B4rkS0lh/rOP17H70wl0JVEFoq3U+tC1eN5JcZ6pLoZjl9H9qF6UrcX9mV3MlMT8GxIPAim8A27dCazG3+ENJbZrMU0iwpAuwyC4ubxk/y11JxuR+SbbivwhgyfVMCjiRutd/wT/jqp+71DhI6yIAKsj9YQ2oerkyzo8N/8FcX3iNfYrxQSW4lSqc0bU8mX17Q9En8MOfIm3L9skQ3P2JU+W87iNOCw21jvSJ/8UbPlpGXOzDAvB4Qw0RmLBLM8fvsXEMRG7Cgnhpq6wfrNKo/EiAmoYzFfnTgR9ddyl8TzGS4u0kg3XXhlZIenMpPkaHhlrCeMZHu7sBL8zWumvyJ2HDe6w+DHfunwp3AbefsiXeoKZikQE2WWQGbIqnjby7z2ts1wd0J76nBrZPqQct0U4Xd4jWjqn2Zokv/b3orpAXjz/zqQNfxRL3bvbyHFz3dnBMLl8WwB6R0Srft7jBxATRTofG2aiO09njFXHIgwQ3WmSubjyhVIdj5c3dyDJZfdW8wZ8hDtlT5KangvVvT8Qe+MDVl1s+Mat/T1Ed2WJUEuexAZZfPm2UoJD50Q41AZd8+5k2/zM4QAelVBrYH1JYZQZ/d9+AWgfWCjLCOK5OU8ZAcPLk5KiDkyUaJQK5vdWvVYnJfSdlSS7FCosOECo1l2CZAu1x1Qev23hYqp9IL8YkfF9J7wr2QkUP0rHjGJrYhMNwNez3TwtmHppsVVkJXnpK/PNAnDwTzBgYOgzYeeQWrfhCkbzzV36KxW75VG14WSmhUHGFhzX5l36trEG9unDLM9Z+v+M/8SMtKlk+wmy0MSnIGbRAYTRSPpSn3IRBdlVHlaZ6WHV89GIJln8/lDV+eiaCbY1VtpcFdzQcj3QBG9A8tBG3wVixZlzGSnowu+MgeSxYqwht+div0E9qIryfgjU0w1/BP5Xg3ptlvJr3s0U1Wd1dZatG0f5oKxYPA4TgJU4q6VN/bLmRfxPI3DGtC9NSysYvflVx14GI08o6GXIbghrpGEXpra5mUZZGokDLwFAGtK/c+4QxP+fSk8pKRnzCS5HQmM5a/O+7QxCs9hlzc/Mk3yaa0xZGSDPQqTRxVa1CHgpZdixU0QqIT7q987Pq00IA5l5zAL2b5fMveo21CK50fz4fJWHXEzfsZ4En8HPl8a4C5eHW1wCmR0aVAp8vcJPVKzXegga43pZfPO5AeYjIx5khB7/QGt2mfMBf7tjbArgkV3aFcDxFkjBOr0crD0DvsHQKC40hLqS1VCbGy6oeKdel0jH9qYT45geM2XDOoZGZ5gs/3bOp+9YnGT/BM8MI8JTx+EzNTPSOBIbfe7HqyXCdSSA8esyh05mko95ER2TrWbqwF5ceGEJG8T66IgNmSg6TVtdm5mD3EeEfkxuZwvKRrx0AfYs22RinqOuBSbwSH+OBN0kMzx9LdqMLo1xLoJ6BggRRN41OUsm+LqmalIft7YzUGqZql4dtT2ULuXYBwUb7GQDb0Y3+2fGpIW4QW6N96SnsDAAVFthslfUVBx1t/+cBmTvP2BTTWu5ExvtxqHUiISuMhcWgjrxM3d+w6bGJC/OKUPNfkkG1pWmK79cSehk6GPm3eSNzuznnLihGicEC2XYBxnmRiobLSuV/FliKrd9vHtpx3sTNJcKoO2mUPIyJjNi1fJI/elh/wUdxvEkn9/7gzeGfT8zmFwzWgGd4SURgWrUj3Nlai2Zk2Xj2Xk/h6ryFNLNLuBjzIfT3t/SMW7XgGBVZRmZENnpJgNOmE/B4I4djNcKsFKls2TuIeHRnDS6Ukpg9/aXP6iEudW/MjqZ68cifNnZ7mkKCUmnuCOeBT11ZHKXu9OtQNT2rWh7vaAdmUFQAERQOKi8ssWdqdQVojcH9RjxoZFOVlXkaAWX5HJJLSd30SxH6ETTwG3d/qjrHfMDStqtBwVxyy1ZMqQyiRN1jCeuNVFYNao1Yi8ppVF+P7yzgyk36Xm34mGY59EcZ2te9hqg4M35Yo9Ik3ZtHsOe8+zBySD5+T5BPRD6Op+ujb8QjiSLjhR/6ghoN7QPaOTCUOoojlTzjwv6J7cBWzVhBKXSxcWWnfA3vxVm1mIalZ2B6T5LS3L+EtCN3Hvot+sKepw8lGF4P5bZ/nA9A3PJmwopRByBe+mf6DcYGHDEQmV9kDzDrAnQrHc1hnDyYdeymWYmDwWSBcbZ9MtZ28MVdmkkP7Pi8P9dS8Lb7lE5UFECIIx+prvdPjtO045+OeaR6tvTE/zPl1e2+8Kxttxp1U0ez5UyeETM2oh+Y65jVkbaRBlHX9v/p979hyqvUWYmDOFI6UQ6WiAPeRrrfXRj84tEDaKzLO5svQYh7a4jtFgTukeatwmSejyIxqZfSeSVlwtGthaZcbOhJnhzmh8VHK/v0mzWOl8tfpJjT1I5oHJ2nPFCVkYlklF/wScQABIIIhh/WeMF12//EFmH1tMcTPrBMy3mgyMbhuioBho2DjGVy+IaQbLJjLZKbwLnoX4+zLglk3i50wqFhQep+lP0vVy28X7mEiUXS+ku6Ljf2M0gCL48AY/QfoRVeqeEeTctKo2uyhjbATjCQA7J19LHLcVLA6YRtbiN9UzWNDShiZtdnGsb/e5s0wLKjy2pxiJbLgkWgsX7hEEjlZIh6F9t3tWfC82g0X5f1uM47USqfjAGQYeD2bko/1GyHtvwcnUVPEYlpI+B5SQp50nDw6qRYM1RtE7LVWeb7b+x8lTTGvqHB3kCOax1ou+m8qrW4dH106G7y6kLPzKBfmo/umo+NOWzvCqOnZtp61fUt85WrgvusTs/F854auUwBnYVFv6YLPfEZKtZMlEktVKn2Sjlhen7/w0+m8lJg5QiqP3DFu3E++ewSt8ML+t/BXjfvF/R1ZKpGEJpowQfgi3llAL87EoA/SMIr0WjAjvr1zOksXw4Sf1fJImZmweGUVn0KnLdEqDSd5lWDQqzYDnisoCWy35fznVo0/cftNO3xCougMV2L4TObA8PJlz7mQjMvkwY8DFp1vDqGPcoYrCJ/w+00B/Esr2Fk6S8ZOQErv4tVuY8QKAkGi/o4etJ5CEzO9xj91+2vMQRhEqW+QVpbfvt4bY6SvvjmARN3YSgSIORm+jAge2CgUNZ8vcfuHLfALauuanpeg5UNAnrjLfWawcxQZFtSgwIx7B88axY73BfnPtHh2zmK9MDhc6+p8S1Cve3a2WYrjgFjsr935UOzDb+0CTE4PAP8rL7M6nKrhM7ALDAilBrxc6kG3UO5ZDP63s/ceDB/psIPwpP2SmXr5HqWpt285iBcwhBHRQT2dnUwAAABwCAAAAAADPMiZADAAAAJYEr+0a/0L/Qv9C/0L/Qv9H/z3/y/+J/0z/Kf8m/yD8AFk1Mj9L9OI5M/Dxcwtq2b35Nl4KVi9mIhfWE0nFxLbyUodQujiwABvJ759fsM2s8q++R7xzs7SukBVn4mqUWUC0hjCOcBrCMVn1ZL/emae+NWPQVqIToa2ziX4FLln45vRuDC8IAE7qEzh0Nj0zEXbq+EiCp+/O58hO8SWBSNxIC829uLACBnOqm61YXlhS+VzUmXgA3LBxSvPDF+g8WjvM10adrFnH+8KH4ud74wHpIqprwc5jq1eUjbRW0c0wnPTBDCCfOJ0BSR9GiOq3N9qIgvs/31M+CGfLvbsxRj6VGI5TkIhE1oh5ZiVXz8NgFqRulcGcvYn0F01vu3iLGWpmmIMz5ccJ3o9t6Cc2rmsBzgidcHVavgzmlUD3HeR3UabMIg7aJrzMkYh89T5RSHiTa2/DRc9/MJRmZZO2UpL8Pko44J/+HsRV3oLtSkcyVvtpnQyT5rZavJO4NY/D5sChnYppPxNHai7hAA6Bfa5usV4xhXF5aPPivFmsuqbJO/xG5XtqBUe9TUBDXBafa3BmsrIzZGHmEpv13UHYsqJ9NpxFkPSdsy5Q1sk/dVQBAy+YCQ69s87dqh2uEXaScbkfc0WeLq/mvdmVKSyprmMglxeWbA7TCZANAZKESQWagtWk1bly9HlviQhnJjauMbj6M51/nLccaIoCSlJCRP2VH9YwpYVO7+fNF4yzmPHO4IuPnFJYjSsqWPxvKoKAaKR0GvZEWBeTioBkuvIEdt+PiOfeaU1jpAW4V6eJzAQi54y2WdxfPVEE7gXupRsNsGiiocqZg+KncMSq6iib0IhKS2mJPffadBffuOqnHRQx83TKtx27geCYOYbdvuBVGs/8BCCUfm0Z/ALwdg8nrgzDdksoQEgVT2l8ZOjl5r29Qs9MylqMNkH+U9ljvn1ZI3d/O4yOLkOS6aigCuCHnveUxETJEyiMFsa/70LsNYcDnaWF21r7LQRBrvm9cXMQsJVbxA6nC1jVUcrvAUuodYdF8t5f7bj1XGPa2kSX3xuPpcrNKmzVzItj4I56eRf2yt8O8ihxxxnrHTc+BCAWmAVUY2Rqxrc8+GDMuSO5qNR6IGbCiqixHAVyvc7o90NKO0kFhnD5GTQcS1dRMb+c+GDjw2qvZm3y9YykDlv9cwe8tHQjCIEEqK9jR0n29bmUIqvSYeHzUyVj9YVGyXQLJDqDHcM8jbf3xBi9RIb6403w9A3b/sdbyXWnm8T/wmAacGbnJQbW+UzHddeB5y9QO7Vd1jtbVwNmj8anpJ07hGXK1uj8FdFa+rUcUkUbDAsRPtW2PzcEXNtdjDmh0b/e+4QCimBbAJzr+NQzsXW68qMLKDjQhmxjrRdWyr8LDQHdK4OwvF+qfvlMLJKoDydzNCo9snmQ/q8mTnDYxq62Mf661R27b6qkXL2hp9TPFYzO2rLIZIY4T5DJZr0JU1yelJ2kcSAM3KDeBlL8MAQlHycGJHAnGuHKKxmAJ/y5QxdMueliqOjfEglVELqG6qJG1ywlE7nPSbN6nNq/mYaRQP/JnEt+8UGVMyq9jEPgvr4gDOOVSOYk++jSBtJTX2+Ib3sIUv3JQMDlrkKTIwT7sULoIV+iPfV0ct6RVjC9ZaQu+s5m0J4fuMT9+37DHCUXoDRJqw3VmYSnkyeNYfcoZ39VHaiBn2a73ESwgasCQxBLPNv9mpyT/qomHTXTIPa3Fk0V0jT8FAECnQ54SoTcACopM/yXXonOONMRo0KR/I3hAK4v2F6uuqYXagvFIZLjaYUo2VQ77YstD7uYgXgFsj1/NHfT7qIrJ2082JTBeLTKYcN8ES/qXODY79O9W531WS9RWNkpw8n1zO2dFRysPE5IAwWWdzNXjqfNf/2B0VP7nDO3lHRQue1M9p+07QWHXgb4jkXZApLPyQT5Q8gSQw2pRt0CDI2cKK/f9ZJpF4B/GQElhg4U5IjjBIENvsyly/Pa3wlhxF83rT3nuTwo6KvS68tD/wFXnitG7isE3GqXo+UXnqUnlND8CkxCjmrEQRVjORrFXp1KXweZjQ0Psxp3smsuyV3++EgBL4PD12/LGkmkBBlMd3juOFD2gOwvVhRzl1dGYx3x7155giIdrrYTD2DQw8Z2AoybxG+D2U/hANIvwJP8E8U7EQUr1crgiqBGnEEZW8+Mt/WkOXlglj3zlvguF+2io2rF+0Od1UCfXKdBRPtCRvZ7EJKCOkvnKrnP2Y+WMtY+IUiwsC4ujU5UmmjSqwtilW5alE9Npm/vU8s0hB3AYLfnun83lAOkMakuILBKMVJQ2oIL+aklxQSLb5SlML7ejIi1d58Fj0AqRzFRp7T+ZMvUcKP/S+f508IFHn6pDl6m1jGNkVvEgDC/2hz1kMhUWEiFpK3Oko+AV9Bw2XLDwrgn0F2INTX8woIOymSeCNgkJDDP+3kcZO6S0hB8vnyA8Ltg3MO85UZx87vXWnJf5pN2z6zIRQA8StWR+3VsbYzKpLM9nLMV4Go8Xw9vuHdygQ7o8Dg6+52gK0MvYst79tzrLg8PqEwdEbgRz/3XX6qfBRG4Suzf5VbT/BpQx8kPYBMSfvzRSa/XRu+MMx+e48nuKcskoswgOxp3ML9pB1IGgVT9aEVw/RrPVL8tSiFQKqUAFNzJKIdlGaIUVdELM25ztOK9p7yjQgkm45kkGylskokNtJjS6ExUuGZYZ7OVQuMnQb3ul1OpC+4xX2+jp29h8XbLnl1cqVJrUrJloTmBoKlWfuiSoRY50C20E2XGoj9s2fnnzeQ3exdgrWfDtnWVwlgu9whIq/dXmIXYIRQORyA+NlDQgRx/w89HKMyCqJhjjhiRr5t2FruI+M8MwgVzDutItRZ6nWSReCK1B/Hxjlgse1O6rav78s4YqC1OVibkgRWVITPu7ovFjxsyzRnPrJ94Yae1/7HqAxQqSAnYNpwQxUQ12Fk5FZQ5DOpeRN5eb0MYYopyCybh5nVAHpNtJ/5zKerW1CY4XR4GwNj8dxarjmATeU2DLFH88iKMv4kPtD0/A9+lsi6kS4Wc7LkI5txfh4pM/qa1K115WVAGccQBr8E3ETkYkssjvqVv+DO6c/qCAmr+l2gh/7oRVBQr045WRUVCi0HV5QJUqsCUpVkCE+zpKK98NOORfFI7TuaAqeMP851Qh/yoIHVUImjnYnFLk0NdgkE5/oeweyNMfILG8YWgD2ZOviTVFfKkaffPD+FSgs5LbMLt7GfF1h9Jh+ZwSg3XIaUJUbA5pTcJ+cJ9ObC9pp6dJFpX/XT73eg6GrwhRUWY24GZOC5wGLovmyWZFk77x6KB2HFoM6WrDN0dNpzSDs/xRYj/taBU2Rqb2yIJzQXwXA8rQobncVn/qz2uH7IyUNb0b1fXdHdvBQ8sYB4FV//jaoVSqCg0GQEQ+IffRmX1oQauqFaIbH4ZXKfFSF5NyPCIAdENyHKwr6M/bQPz2w1LPDqo0Oma8+jG62ic3W9QVOLiYXeuKTSx3xErh3LjjGif+EhCz8bBbRZzQPxMWpXbhelBCznozKJMqf+I6ZpN+d/o76FvjFaS9Z5b7T4qI9QjVRiN8iKgMO+4WydHi8TMad8MHfhell4X4A7qJnRk0Px1Z389QPPxoFnp40kxyWn6e60XobZchNEu5xrPflXwdInQux1j13AujPW/a8Xk1VuO3Vskr0ZTm7rveM8YC8RVGGYZ/RRu7WApfZEh4v0MmWM4/IGkBIoOdUWgJdeeptZpSLTZ5t3aWaCtMG1qTG2UdD3IO/tH4iMfqSuwq34lQVBbJpxYl5HFHpuwQTBNyOuBKs9UPjoa62+ppbhxKQAp7samPJ9rejxsUm/yCS4YejVs5IZKWooBhmbZniPaG5c8vs4/jN23cPUvSPwBHlOJk8ZZJwMzsKYtkfiy78bWBL66HsqHY0sXQwCjsO3YZR2v5RXVlH3WdHwDu8v/3Is+oVWaSEVRu6JB1lp2brAgZPxEq9RUvjYNz73XR6uNFHEsKWIh2dXyisIMQ7TqNUmVna/dl/WcMI/Kzf9G+jYLWKpIMB6wBvpYqtmeiV8Yq5/v8Rg5JuceAAqrCbCzcjr2FfeX0/LnDW3JQX+MaLzwI3bWhZDfBr55VpkjX6+EpFYrO7/9N754/AFLJKZPEdJaIS9UMtaYORUKtDzvYKvv4wEh4jCSvTeMI67k00plS1LZn/IVt4gHJPjZTLevQ7ZKJkwFtBzo4PF+FKgF7huiYSYQGRbJ1sSzG24WbviU18CBm1SDolwSO2gbAST2qaRsSPYgpDQmsiPmS7Dxm9b9aM3drrT2nZJXPD5a1mzTFlSftME1oeXJW+mY+Bz4v/0cDuV+NqIoQMc19VZS6xf/kfwJifom+kyzVEjfTfJsjINlTPhhho7jWlcC6qD17NoOkvQbLq6QHtZGxd3ZqtRF+AEH/p/TkjjL6LB8nOO4Gc2NZTvtl8ruPFr4WTiAMNesyzLJwzUCfPzBCqI9MtTlQ8oAxJ+i3cM5Iopvn4sV31SOYBPbUTX8XGLAGHTYyV5w644qMj6iZ2pYK/VWxm4Yz8XmPhBIJP1798LjhthNvv5HNvzlVDL+OBptbQFnOhxdqk8QOTLUq9X1FKyYUz07CLeiadl7+MKPsbdaiiaUSEJuQjKVUifs6N9vDYlu5z34WVekwlafbwSPvqdAtaT3yDJCvfeHy/QCyVTQQ6wV21m23uCxTBRazOqLTEIo+v3hzwNmYmqXFarWyGBG09kjet3mLUJqUadM5dePKIcBIyfUrag9Or7FcN1IQoB+5o1LFvWoX8+ogxdHjWWfasaISle3WyPe7P6Oo5Vfww/bFEkXCxuUKXErvAZZQatoFsnCVrWeJHqz4EeU3WTK773NCrRioNy3TzYunOrUWrVOH6usE0OSler87IX1JuWvmkwLubzHIKQV2AKft24nMrBFacRiWL91gDR/cRu9v8/e4RXeHMczPXnAENL7/OZFpeD1obPugZuetp+EIjFdU1cywBqYU5xl3ewMaaPnnecHuy1yaMPSkWw1lOfjhgnYh3ngzJIdW93XPq+MBR6+xBx1x9rnv8vpYLNFfy98ri+puIStfBwI7vLWrokCbxImk7+rV95rousEdWc1hC9B09dkIJo9z+oeSTJ35ptIYihVgy3lcR44b2ikU5AOYPD1pH+tHIavrCkOUNF0oNcWhhBTq7LFkM/FoIbZyfndZgk5nUf7CKm1yP1ugfrzseNgBWEw97kyx/PqlDr36s8ZCUZpM5oPpyGcJ6x7YmPCf5jEsa8Wve8qVkBPeFPtTHfivtQyK7pjInfH1OWoGBICureC509vOceqFpd0AeMDV7yu99/669x8sfbyq7VakYbhcuT85ks1UVaYjETO6MYgAMhQ6QEQ9Its3n+ASWpqf2ATW7NIFN2PclldNVtFwCuYaHu2tgYEzfcTszJgmS8m78Rxt2wFxqWb/K8g/EcPcIyXwRQYUuipnCOxc8VCE93fmYYd5OmgdV//OOIThMvPzxt+d5w/DEQR4PQ+uhgl/wLgsotFs4bANvCJRzIAhqlxdMAkuASjunGeIt549MiiqxhUGAzMX+d43uMdMRwrBdK7wcEl4Q3v6sWgwoZ8pmt9VxfLtQ6RSi2XZUyXmdf3QER6kMHVa2OiRw9g0mVKpC7ckd5tvxerJeVc0rfkjG2ttKK5uv+JHrmSt0EgrecsjiDvQl8yEwt8zwzm88Qm+np/4DzmkSzJqRTY/rBPJBWy/E9nZ1MAAMBMAgAAAAAAzzImQA0AAAAzbonAGv8n/9f/Kf80/1j/Mf8y/zL/M/8z/zL/Ov+Y/BcyY+de9sPJR/wTcVepP2h5VDzk7rIMAldD6U/mwJvnJhem0CA0AkBYiFafYzPCtbHbVVLR6hCKbWRkReW8HChL7IHoHtc6437u7ZOfWf3noextqRemVKN/qVOa80G/mFnFJlInlPIxWT+tEQKtlcYJLJbDonYD0Fs0ubK7cX1vxZ4WHFpEkXcFcBA5ql4IBvdbpjjMnSXyps6cKi745q+u78RT+JKcIN3M+9GHdpN7thZHv5pMwV/bEmlPqhOdx/rlUCZsJnB2yPOVU/w1k1sjmH4yJZtphtKCH3hcdgQ7qcaCeSJXX3N3te0CGXwj1q85agf4SbqCsX2DaPb+GJpyCQfUJ51WanzNGySnCL1RfMkmEkCu84qPQsDMYXFfPY75JI1c/H4CNZ4nL495dm4TrNRAT8Skx8nGpXMATtOE0HEkC/68LHSiqJEU9Dxz7ypOE+GKpWotsCgzNTCi02OM/dm359EqOq5ZSqp59WdU2/w5gdkStR3kw2pnwe4LSwJ0+tswJ9eOcYeYVWr/mneFSwqDfP/1/EnHAUX8a2HXCz07puOdgN91l3u/Gu5A7D2g76TBv2KjH/+nUm+z1L6T9o1jZNRH65mQLzDPaphfSDW7YCgAlYb1Rk8tNiXolAjTcJcslf11F+AN4K5KqygKBR1JeYruFmkO10u4BmbC6vkFIjHwhVsYgHKG6vkkV0LEZ6audys43YLHn9xsSLGwahpELbnQgDaaNpzWmjScF8PLZ92GlrxNt5AWh9wTdNpLg42so5IJahImBrdgzJqBYarbPEIDClNu8pzOrOiHfBndxZDdQgMD/JMZp1w/QKuOPEi8JYUEclvMkXK1wPc8ZYsKloKlh/RKFibC9AOz4xe7ZmJSFjd5NNhTYLWmy7lZ4Jg/Ettl7Mobjv3XPK5GAauVmVUnQkeucnJsn0UZbvYydYO8D7zuGANfcnagrGXvvKD5t7/yPZLJ4lFCuvZjxiGqEUjEmJeKuefp/z//Rcc5ExZ745fGIiz8FHCFUykx3oe5tupET0WhYZQOkvs7EQu01R7N6AdCe73slwGQgSvzj3S/X33STtYjWj3OQRh29BOYIKvvRXJM3fvr8nDKBKbQKMUmz5aB3bbkyQvGRl/QpNfx8gd25Nqcw/BszA65KjbuWnEor3fWqzrZXAxPZQ0NNWKQ2hVot2jmDVUokPmxrggaG3JFBt/pol55P44UVLDGLb0VG+r4UUqpVhLDKRwpoW/ZJrUajcmFWpdr9Rek54atKOFRETKeXQPbMQZ/BT2l4hjKy0nk3zJY/Bwc4Fk6RGligaOSpCVgiwxU9dFRoBKho4uj4hKunW2ngCMUHpTilFFnluEC7fDMsfMCu4rjrMAcQnRRvm1FJoJfZR2KkXsYae9TqIz7XJtjsSX+SvwYKFykmCzlrB15Z5SSn3Mt08Ki6zORcArokKOGtBABbT03Cx8c+mNdLh7Yo3twyMwtf8EACgEoNJCpwqH+zaugYih5xe6CE1k3YAv4dhtuaT/e9rfKNSGS8Sgcd+VJ6jYFkMSdhfJsQVgjh907BhnP4iAdaBuhJA4PN3cjQhQbuQbc/x+/rJa8ZfVK+DypzitRcvItncYYJgjKiMu4arWNmpMDb0Fzv5pyF6KUF27qWasGXYZEpkT3rEvekTd6/IRzLkovCYqgh08axA6/PFHzEWA2SEze/XHnYmnpVgAotobz3f38n/Zgcjo5IbynBPHbOIuqbH6bYpjuzGhZ+Tt70c5TSRAS10KgXGX1VfgjL2uG89IO+Lt+vAYHqZDfbgP5rR2qt57Pn1LV2wjCmL/pYpL8GCTdc963n2kg6ZiAWMVdWSz3fVX2+wqRCwx9WxlnMT+ziMLbic2fhATkqp+qyRYdmTD+zQ/i7Hs7qnQny/JqRm2N2dlxp2sie7M3sg1gXbu1q8UakeMMxrTHVAbI5oVa7av11hv6ZtEQr0HRVPwAipkpeNnoKXRHCh7CwhEAgccd95ZDa6KMucHPT+/nJU5Ai5jy9OrEizKopwJGCXZd/oVNNFeofv7xUN1W6/IGNYueS+6rrLZ/Bjk2nnIlSDYdrJLx59TRYekTGGmH0KtAfj8L74AVG3+N3pJcef6MvufhQ1k0wSbMk39ondLddOppSQU8/QnoFO6NwLu/HKdUk0BuF/iDhg8jPVV7E5pxVSK4/BTFFKQhZsOcwI8hQ1GfmrYWNinoXyBNWNzF8NJzOaTkaRGg26WqAFdtUb0CNPEoqVEXhn7W3JLHe2zHjdn4LRZc4mR+/PukD5mkGnbjc+EjaSHnIkMAiwzGnwX7be4ZoGcnqZCiyZdmX6FBsh3uRM+YdnV1Arr+JjWeiYuUx4yYgg9i8jmntjy8zkPcTOwI/z4uPXZO7/HQgzWBTGHL1AFoTbVS0R/aLwZkvAQ+ov9TS7xEdPmBqBkR6A8ny+HzmmWTVfOwgKZs0ITRDEe86UsJgqk6v6Pcg5ZqjaYPKUDwOIOyDfygpIkw3fW9I0AsYHpSU+XFMKtVbk6X0/jwOjFwK74APwSJ09Igde8gL5K8vMichg9K2fS0aJa+N90MgQ2rmlz2qEHK8CvhbKUUSUiJw8jE8O2ua9AZQmEruZ95W2P+S5MqC0+TvNndB4B0Tx00xym2uUBML+/dKngQCkj/GV/OEBjLpUs4JKjKxKC+ODW4Dfz7oHxJyfyv0XX/i/x3Guk7OZg+xD8K5roPAHlRAc7o7fuCxmrh2HjPmA9j3TUzBMMN1PySPbAwgHXh4U5nphtMClt47toghrAycsmCIHjjG0GuA41LhdlYSIdQ0lNpeWOWHTTZLmH/sQoIlHV5mM1A6c8hU/PHmYadHX5J9wkKGVRKj5JqLXZ/xBA6br0GCTvNHIFG/hX3BxE6uXG1laeSa6pUM2RJzjc+x0hF0n8OZ4mOLzN4gHS6rQwTVUITMAWRWig8T+xS8jYVpMmY6+dftNTJlgXjdX7w3V2x11NSvjKT1ZdpC5pIfKeWDuY+/PUYiQiHnTFLZjWn0pA56ofcpbGeUxPEXUlqxa/PMRHuT+7IaCzQbsnLcj4rMEWdyDY057ASNevskYx6e1W+JtgK/Pq9zfGepPmEwLsxL6eYQmbJyesZ16Nm3RjxIHDT1qxeJSpp+nbyqkqi4O3eW+y1wGEq6Q82lUPE3sdgPUA83St9pojPSrRSdujTXKMabRAcFkf01jZCHKGlhvmtGI8EZ169UwOM47xpz2tuMJX4C8D+FSN7SIiw5j7Rbqt4eYCDqowX+a8/6gc/+A9n5tPR66P8w1+XeqR09tJ08RF0Cx1O/q+7TKralYhzf/WxqjkgfiVHmMHfJLjCjhub/s6Hl/67hUSWxt880lGl3T7ejCWXJkVFLEnbnHqYoFib7EFddDVw4V6NZ0E2yMDIlhzgANChQH9tOoHWzCfvA8SWRurolONmnVt0a9MZxtXDLoWkVHjX2tNqB7o4VpgGcpIfuAP6F1SNYdA6vIQAd9JlJAD85k1Sylz+zPApN1HxgISjw3pN832oJ+DEuJs1qQh6ENZzRTqi9gdH7OGWQgDLxQoZXKGJt/J64l7nAUSvv8AVihSZtk9ndTxRkIOoBAyGkZfNJXHgDpLTYuAIey9LOrxgNiRkdE0NIaXkcbRpvK1kIEYZdxHMabyS5cmDttAzoPrBzCsVDWMNITjm2RlJP7722o1ccHUBTu4N4nwu4L6Q8F4u/lcw+gNrb54HqhmwoMD8RsaNRui19CfUcas1VHrLIoGGzD4Rd8PetmRnnxtjM+kAvgSwgDB6NvgeC8mPOoDziZWN7zlnV5d2YZf/k0FX1+dmLrzzPL7yTDHrB08iP1QHlSyKLU/aNZYo+7RzH/cVxHaOQJujGIe506s94xKeI2MiuSsGmVGIjB3ber5ypPn85ir1pGRy5YMCnI4wC/ZrBHSonXcSfqKH9tDkNl1iQRKoxqAk5lqSHpqWGdQtD0Fi07NtY9ozdtXM8TqIh6ghZ3CYTGy3TYjrKwKDPlhQ1U2qK2TsptoSh/xhwBbEKGBP405Y7sOQTu5dytmh3FZkPbqoB6g2+RfO4La/79dYgxM5PV1AXBT6iDaQ9O1c74Z/P9Nq3Kx9ar1JY/V8576OWbWeHeLJoyi+xaewqh/meF82cprrc/XFWFuh991z9mankzeielOuQC4aZywPm0e4epYoBcWQAj4vC1/zaZ6jjIfQ4fpCGfuabN7URcNNSBhmQIG0tDnce+7Ixl51A3Ihcg9iRUhIkYefPIADErphQckC9J2whZYyPowmEW3FcWjhJDROKXwO+hZeHkPS3593Hfr85WVVJV7hZue3ek6jO6Yzi5Rn13dCLjstfQd853jTKbDtrp+EQqd55hxwfcZbiFy235/2RCjzyEWF/u19LNy5hZplTIRTqJ/giJLxIwuyq/QlKjdFa+jg3AwQBUUyMW6p6RzVrzxO6YIvoYD8bVNWt2DJrv59zA2x3v1D6ssEYavprp8kKwq+6C/UGTNdlV33qa67H8c/y73ppU+I2cuTM27bKD8fEADR8lZnndDOI1zKmeHlsj6C8ed8DTr7Edoq6M0rdjpc2v7R6je4lIhpjdTcLWboyNICcDx17xMeN8ZbueBTRkDycUZI1ipDhRFP6fg1RgCwfbRJaxJnntV9Xp6A7AZ3ccXMzlEoZHArSgt5DlNrRStk6WWCNlzOV+uAe/4z5/MYNTWt6h/irtEd+/z6qhuDHR+044o2OsAGLn34zT0pq5hwP7uivhOJyQV7PtrlK+cK/ZLtK4W2JJ4hMyKUioV7oDD53U3/HToeKDWdOvF7lR93EfHs5gdirGgfpZEzc2nOewsTSsZsI/7onXqL4Dq6pCKRMx1USCFDijv6oQx+xovHLFUKNFHWF5CCXrt/A6qgfGhx2g9qBoXn34bFpD1OIlcO44xQqrVtSN59xLtn3G+/9zBycHWdUQnhGSc7hhO1rJkxmS5pZ/PHv8ahKC6zqeFR/Jl3hyd/l7M4NJOV9yJorxOSgolgzxLOuO7i7NDpC/vPIZUXnCLuw+YDzc2PI5uSZjQ/cCdfkxLXUDYUqJxORUrci4rtSFeJtH5jwjeSoxwVJG12Qj2Yw8J5qZh/CPrAhE/KAeUo9gNbmebdL0vUBgL8dxiNYsQt3gnx65Fk5lkBY1/ACan4+km7fSF9n0qX+c7CjvMJe5FiHCuwpn/SryLceVRYGDXx03sR1E95ZxUMaJfUzH2rWvBn2zH2tDEPE+555A2Pd23mm11IMK9Yc6RW8XsOUx0LzU4aLEOTRTkWZr5VdId6fSexThaoZRNMd8TURBP/txYyZp+3p0dBfsXDopqkytmxoXbKBl6UyvBnA9/N1bTXmz0dh2S3b7JeGZxBIOy7IaIZjTbFGdQ87z0eivrh/xz2jnSiMbpJQr+q9AQ00ftYJHBdmEvxryiWIMNObj+IgCCfxJZak95zOLbDyMfO0pskqtONVjanYlFexcAgqcqt0YszQBZNxTy8OJxphgpoE37E2oGZ8Irz0+WCCOgwiCOE8+fryumZ7sHahd5phBbPPwIKtzu7CxaJyFTk4ST3x4G5KMpc2oIjFpGt9FCWTOH1QEXdfAqwqO3GD0yUcPf/p/rIQ1xkt8AxmYMZSKEkBsO5ul6dR3y+PUG5Atv3iygE3fZLd29IASVWAVyYaetmik9nZ1MAAECBAgAAAAAAzzImQA4AAADiHrK0HP83/5f/LP8r/xv/G/8P/w//Ef8v/0L/Qv9C/0L8/WrctAgD345djJ7gWVL2se8KcxXH55QsnYJImjzeXMr71x/UXKR9JHUOM+3qLK0UgPujBBHgUIrSai1zM7Qp5/12eUhdOM+dIdUvdJOpFO6HwAfqFufDZlPpDJMI8PoJpsafn2lbwlpOIgcP6nNIzXTUGtxKDQx3i1mBNeEfQqaZ08U/0tiko5w1SAoXxoPyZDXuk0cmTjYgjENoybbznPyBB1M3nJntrXqvPtTLwjvI0cULcIFMsDH09vX760XpqtVLgqok0pKkidIxNolMppyWxKIa1Jt93PcU93+aD2kd4bElSn+NhCz0kmLYg1wJQQxLJKOybHPqVwSK/tpGMKIBM/3sr+UAm9Ribj5MchrKI7CTnVnmUEu4K7y9IDTGjKHJdvABAEvSBns7+GoT2bP/JkoT/HcTidEy29qvf/bnWbyts3qmObacH4cSbC3nNU2jvYxJoQbMHTSFHm7LigOgf9qhWaP0Oi0hQ7vXEje03E8U1Sugnqk3eRmSvQA7zl0CTJxCQq2gBoK7jOwkjcIHi2IjNvL7j9qf3hgwWjvC+caa8lENkuz+jd+IBq8kgxeWRiD/Suxw8g+YzfMoIfFCk2i7gyp1ogkR4NlPaYo/ZAoiXD0EvhVcR9DrNmnEd7ShVjtuUFe6JqDBVniTSHBszkUcnhwWvVFfCKS9LT/pshH1d6B3ohHNjPwWC3Vb8TBBuNSp/4NKLgYYGuMMcBI0/P4ylffhL6spaTog2YLo4d0QJs6DTWS76SSVduXlrIJpiKofxPOY7X78fHhYesKMM4HQSmKZHBbojfltipg4dnmKtJRVI+gW0juBdK5ALdFI/28SPEf74nm1tqMJXDWcjz5XWAz9fRruyGmei0Hvn48Y9A8hlfMdhCiy1ouNx6nmyevnE2XEQI0AoXsRRLz+RR+ERyGgbfK+9/p2r7bVktY1Db4/nBjdI/xBZ4L9OOeEYBqW5lP4f33qvjX+X+e0RJcmB77J4SaKWsGOKgVEvOfY+5tKQsnVO0M6v30l0WmnryCNqS7ERX9j4eG5uBi/B1OtaVwJq8jYl/ZTbX6lM1FFMWN3ZfbfqsqJeySjtt1XIohgoNWr1xYfQ4b7j5Ff8pAc7cvVYXMD5ECja39TjwzR8MDB8jJSUz8L8nU6rJxEUMrhsm9FvSEYeoP6WKKhuGJ1mO78+9ca8dMh4QA4R7GUbhx8epDjAlkqhCxqBNZtI/z1uxpwyUHz4kwMYyfurZZKGnDFi1CYcuTM/9ayoCybYmnNoOiSnzkXMnlJQWn9MSbEwyCyA4kRsflG1wwgD+I7TaLH1LPd2THbIVOut2LwmBsEzvpJPGsVqlriQusihvjS/Bdo5dPUjdWLHjSO+IrVWBtHB9ygLJiiy3ITn/3UkejXSkYPbDufNTs7Zprngc4/I3C+PNjDe2Inpsq+3eJaBP1k2ntVOGd3M+z1dlAfra3dlwBBQARJIOFW+ICKs2X4T2QkhuRfeauENgTU4CP7Cq4TgFFgnN3LyAZf2+1o+grvYZOeLBdTCzjtkDwHxfgt+XtyueM/glBiUCJhRqeL2eaZvlx9a7RCHKEQPpg2dwU82erGGRvzejioIsi0Bh0V24iTUKLp/c79NPx9zFm91RWOhPe3mBjm8qoW8xKHTT2wAda+DEbbFmbf8K/HDLm6jJEW5Q4n6Isr5ejSD5GKmXXi4KEqK++qvhMUCjKtVYbf97G1HHOGvp84cACf9LcNY7ei+K57lcu07PwT+rEA0f9JpP4H+er61fzR4a0E7tAc3rTlggw8Qi4OUgeON7BzoF+QKWhoOeUj1j8iYqW3AySiYB3ZuhbqNfx1E2tHI9pqONIkuO+wEJkPh8I9ZNhmx8+r1YG7VmQm0TPp3LgEC8MCfRGHtdtmt+BbASVXwu6BD4ror0og0K8wQHZsui2r+V2JZg+XfSBur44VJE8oJzNcsva5QbECYPF53osW11ejSne0eqcAvZFDk8qQGU5icU2VMz+tmgDHE6T0cAfxE0YvwA6iYYQIyVWf5TcCcbRhuJdMFKzabITAmC0vyvsSvc7as/hYAmttIsahPav8nztUxRS9zh1v7Q5xwlIdbpBSjkDi/NIhLFkbhRPL0vfN4ejZLfzoDoY0/LhHQpQ5f9Mlmb2u5fxmf2Xqoc/cQcrkT5bapzoWjPi0EMajH5ZLpDh0HIdZQJWHdp/idqvqzBCMi1YfU7DWPQi5edqma9hHpfSow2Udm2xBDlEIgtFtj3rKVvv7ggr0dQQhDrfswwFt8isHKhlXy0EFegcYK8wT1eQvDi0Y9JmQWxiRq/wOdSD4r6o5eo28anLsSQXHixEhWEsqhGGoqU0x/Bmw0pFE3+geWzoOkr4JC/20HvszVUElIjeYZh1cudu6pvgBUV4T0UZ9lgk0WP6zWBQToSyltiyeKzTkzMdx8g8ZMac3yHYinH4dVzGC6hWYnawaK8HfSBHfnRSD3LWmXal5mJWe7/dVCTUIRZJUll7iAfwWAkN0+/PIYhajOE5jN+pFzhLfHu/pYPxvmo7B2HabKJ2SklvNEktBJM9E3OCoSgfkumD9Q6/61rBFpmgqjsLdv+kh4rKIWWPqjn6DaR3w3NWmsuMq+8oP7c7tD5S3jG8z5fTYbGL37gGWU/mYTB4qBImt+e35kTSFpg0aenZQoFAX++Ffyp3Ex/p0TjZLwwdYleHA31ZjEyG9uxF/6bBLD90NfGf8wKj9hXuKaZcnnGMjDl0eRM+AO6VIGVZRkPR9EbFsAJ5Pda+Y3b+93XJAe0gqP9swZ/m2b5SttCFkVHRmOYcvYk1wujM0Da4oojYCXxUssi76DyFtYT+VU8Dw+I13vjKzWJLl8JcYv/xBe72rQldyjJjVwxE8f1iuq7kkkzumMvGhHRXcQE02qfuaZ5tsWgsZH/hwOSxwxeGZQTwUtESqiiAFL4y1CknU08B81dZsIvE/T2BEVNOpXdkXXQqYVQXZ3qRFvz43iLrBR5Y+qkIP0zD3HIh7OLMTO+dELAiixiivqV7iFp8Nmj5iEK4GXwB/upaPcx8SYo4fMJxERrc5R89GCUVknwKNZ7i5pFyJ6p5rLISM3BzbZbAkvkG6IsoNzetLHUPzuvW1pfpDfP+kaeljJ41i4bfnzigoPTXyOdqm2VR4HbIc5C142QXCUYPXd3wJn0qU9XVrnA3MuOgWn89MPqYgitkJlPjInx97KuZ71EPnbfxCOIhoWyuYMKFr5CeZ9qp7REyZEPS9VQeon4SFARnK8i8twp+C7uJ73TuvwQRzIBJp9R2UlxNDHvg0dMTjaUgwpz8KqcIMpiWhWFjAbKbIJkXJOwpsZQuuu5WFiCEGyI2n5Fxf/503Tl4nEPChWaXe6xN2oEy4gITNL1v2QJ0NBVvGEkxeAdeXu/pikSi1FcmzWItUV0u+SFa+xsYqztOOPerlnY3qAxxlJhU6PZQ1ZAZvn/pELALNp+RgVNXcfYHzbnsqLDt9uyG4v2xc6XHRGGfO6eHVIQIitmengA78PBb9Br2VEYUR/j4te6NPDdcQdoIZhrLBuacK8Oq9pjN0z+CTj+ruCmkKx3HLNbT//EI4hb1T8iUd0Xhj5YGn0HZKeBwymxwbz7LTD5I4zCroscBcCma46UfDz9J9uldcFbchM3X8NBF360jdFLeKIkDBOp2nHGZq6rsPvbq23YPDTKaTOj3R9ekXYWBRIVaWhrpXIHUJ+yly4EDniT4VmovQeY3yMlZPiFhZ7Kfb2c6SgId4D1uOWVhBGufIiqm62EDsw2rH41eAEwqm1w8jcBDmI81wiPcb5Le+5m7EhIYK2bkc5S78z5f8i2N6WW7HxJkhj0NxQ6L3YYaQ/XIXnhR7c++CN4zkuHyzc5b1Z6tWgk2v0m9H0rhNNujj1rTfsbNMEoYMQlGN43K3Tu19KSRgZbHIfId9JFJWYzhQor6N4OprnJUsXPsG7GEGclgi8bfl1eLc5iphUjZFxC78PmAh7r7uhvxHL3l5vMfHjSKEVe9L6juiS5pXowmP4gHSNk5V/csjUq5ZskIyw+RWzv/c7ZD+hMQhJOB6C/FitcWUHmN2nZQcFipF76Ppv7nxpsQG9v+b+AJ+9FWJBrlmLIPogdp6zzA68ocpew8eQ973/dIIls/nOJEXUDZy6ExIwW37Muw7t5tClpuxqM1grP880O57fRpUq7riRICmAx5RrwklxGgHiGfqNZ0VhlBM+Yf27uo+9KG1iaYYcfiropdS27YogV+4GTK9wurUgzq3X0rLX0gId5EnfMfqzO27V587elwdI0SrfUOWWycQsjJYrQuoxI34xgUCqbdFSBoA87lozwu1DMv60huH+r3EdZujlNeN+qfA+HyblqapYjfU4YJsBI77donUqvrCAbOdttquu3dxk3mJ6qLZvQb8FdSyOhmVR5XpM5GRJDf73B2X3MH2NpTPey1PFBCDsmkqGQa1h5jfjjLsiTRFpNz0pWF5dM134GsA08jBd1EJHbB+iphAuWIl4hpoRO9EtFbY0FaZrMg+JuG7i7CNUkjl4xquuKXzoUq0VYGVp0WHJcfz4UCddVvWNOhedD8dx8mDvMK1DKPR+E+rjA+HNqhQJEaD2fO5mwiohLs1J2UaYgUK4gMNdYpSJoUIszDhYN1mCNP+jhIYvLGatk3cT7y7/JW6rj+NHGqYIzwGoGVv1LmDRh/1RUAsOu2J+wpZXtpouVABLefRE6B6U55P1XgqmQKcmg7gkTW6S9/EFsUubh670HMJKVD9e9cn3bsG3NPV/j4kt79tyvmTEDlGeE+5cKUTHbj9C2ZjfCmUXfJYuJjrcbd23v0x8cOvD74VD8r8QWkDYvysExXdtOq3gGKz2CqdaahJUhn363kKqxrQGXXpjVYhF70s7PtU5WxYf9Iln38G185tt1r9Hh8u2/TRzLdbmRjb1TBsX0kN38EOXpcZe2dB1/MM0IUTbGrNmMd2A+aG4xD6vdEuUNkVPv/2nNXPVCzQnLFjSd51LHKzU3pse9raqmO2/wpIzWhcFtSB7mvhE5RDpBoB63gvtIO1Ucg5D+rWkGS921+n4w3lWYyun6DSZu4qo2/k28Mm9JmRXzR4HD9mkReG2N9Jc6BPJTZ7lEZfKCw73+kf0AA8PHQ1f5pJTtPXvtLJuu0YAI07Wa0S3o9wk5ZUdnvCmpBMe3jjG1VlBwHx6v3VYGsrqY6alQZDYS+te5JOW2WwJMHF6u1SDFy+ea5gJq/pV7up1RrUskkhYgvuPwIppqseNH78QWsUT3BruTfeFQGraeMLElG7mUbJI9gz1yue/a2Myy6lGht2Dl8ayb1HyQdAiwRzRtAszPBU/jxUFL7yDntCBn0ZNeZPqhmZzXz4+Phxsc4MfxrVhuismf3iVRShwx1SwbpOg8YNUEUeXbH/APXEe7ufjq0OxlBBSVNi4fIj2Z/avs2Do49GchK+6lpj6Ien49K3PjGr4cV/mCSn5RhRko2ehNJDfLGHHZO2Xf3dTWygZhOl86NAWGvlzE0w8hE6FJrxS/b11XbHKgoU5gCHfkrtiXKRS3QGB73r+k/SMpeiEHTHMwqP/+1MmHfVsb7Hb5jqT1sIbBCcxGsU1PKyNhevtK7GHnyouwZtdI7mAeTJE/t0yFOTk0Ig7ku7RNh1HXkgQ+cpk1M7c5yI9vA8yXXckbMmk9VuwCjjasegMrdPZ2dTAABArgIAAAAAAM8yJkAPAAAAh7zENxn/Qv+u/zX//yT/Qv84/zb/Vf9F/yv/Lv8x/BP4htDatEWeQQiwj4Y30Vmhl98HKpdgAO34tcg6e/x+nf9K7X36JoH88a+qQy436PYw1xZUEvTuy2ud/GNPtQi15NanVjyaDL71z1OY9XU3Ky1Fu20GogsJ2ksJ9XGp+8ocmFTh5WaBiqqo6eLf72ZFDNsMErJAmZiZIV5eVyrovEzZChnQwqdZok+5Hv1sz55T4uv+YwbLoc//K2ZoLHo2lvLM+3IjGm5B7U2VT+b+I5BR5d1c3xVj+4Xw9+x56QJpLRYTajYol2Vo2AeKJqQgY4uBFvSddRFsst4NiMtL6QrST92sOHT4yXNJ4d5+EI6YAUEzAJgJ4N6rJPKH61zm3ZHjE5kcKZwSVjYPRfhEBRr7KzA0rLFhchUMUyu+V0vF44luzcBZbprRkbZc8woLb0cmwk3yhk/MPZTMCmt1/H3/G+0Hs4tUwTZhYc0wSrxJmkt5wMuiniPkvJUoTVyFIM+adP9rXNEuFkhi9fXm2proTPkxUG3zgz2bgrVPW0BWjw5yWBABAQMoVI66qfu2gscH1/s0mDRRiIKH+kjnVYTDf/lGq72PV+sbcO0K+PnyDQ2MYWk2QM7XJhAaFGeZzEljffJuFYsMkvYoJ/8J5iBM4tckOx9xYyAcjJbmUUk3Q1TVBjR+t0EqiJOrl0jPvrPvTMa336VKRvblX3Su6ncaKi6PwlFDPLqsCqXkDh8+n+X5d2EU1Dzi1CvBsewdcs3owueHOyZfIctJNIWg2I9OnIaw7wnFWLaDIeK3exjJyVcoXivFscRnwcfVjqCaRqrhzU3YssUNaxONmP17UyoZNZCnhwAAzG1g/2EE5HDobv0TSHnYt2mYWz2gP295KGGq0qoJfvb1SSaHDjSamyHnyGNgOsGn94JW2z+ZGdQyTuhCJPAa/1mQZ71wdWltkN90RmOw2Ni1arWnV94GN9PLm7U6bPanr+7DpJ8/7RvOVmVx2QWKXUsnSO1ovRJ/taEuHr7ltizaEuut/Luq+3/xJw7AeBl4KV8t/LNsGB7BLvAhrQ5l/pNsE1QmSSnEcavIyI+9koLR1PgGn25azqHlsplUi2A/UTUpUB+RoN7vWOJ2bfQZ2lJUguLybJI9xxY+6ZDgoSzztEqdzgFo9vYMqpMC2jpBy6PHLCirTWvQUcUQbJDZrcmi60n4DPUCLBHUNr7TWhhEAVzd2q5ee91UYqCYjSCkT0g2Q8tBzJvDGq6wNBrH/FVT9MHjqxQml7Gv6fXJj+xaHc5HJKXQ67e2Sab79yP4VuEqWKh1+bMa5HnmQVkRtZ54xSu2QS17xzvwdgwGh6rYM8q/1VoB1eTsKHjttbP37u4M2jwe26vxe4fY6zU2h09Na+CZRRxY2kif68ItsrdJg5hP33wzesy/RdWO64rO8e7BsIftWT/81PTCSnHX3FSr/y5+wvM3cFTJulDw3eu5l8NaONgw0eYau6JmehYwll87MEFtK0QfLaL0B9HZ59oo56so3cP7HipJM55PxAU4aK3oI7vkqgf4cEw4MjF31ArLbjFDi27wbX9OLKwp/2MW2Tl1qkrUZCIfSI6M8s8hoNKBW/KPeinPR2aDsMGRulgNwiTTcE5Awd41ak9RIfRDTAQU3hsXZOasjVq9fg5evcdBDMHGdoC9eybHGA7g77aXkLYiSe2sQyY5yNQRM/qg76al8OogyUWUFiDVqVXPyGGFZ+dYKNKxXVklPzLuQfqBS0h0MD2FZlz6BTJ55Q1YAGXso5Rx48nfvQgfdw7cWS1w47TWpgx5RSgSeZzJUPCNHCtRPMVnCQs4Apa/7SBma4NXtc3puAP57WTf0w3Pnp4Nl8VJ4Vyn3srwHmfE/9JbAtMMQKTaAI8ybsJCmH+83Q7fPs5NDqhLuDQp+FpHDtLgFYbue2ME9qzj8jEEGpe15s+ZUjtS6NYf3kT96PXZ53lOI2hQNGiFZ6sRDdbOuflbGwgqKQkNT93yl9dUzYX4FtWp+TSL3wX0Cz3++ng4/Dj8iYd8ysbtFG19Ro2qWRZl4TqfTlg/wtK0QE6sBD2YANZh37a9qqlhRf3Us6fbz92bnolY7P+zFSRlBzbHdC4NE36ST8pZtBcG9tBS3wMPfm6zmz+2wy4xiDLsOaStI4b2opTj1gT8cEo68vVMTHtzFbihcdLeoOd3ieVN46XjTg/MWwb4OGHX/c/fs6tAvyg5vypgrh8DwoHFQAqIeVT+s3N3wPs7tFyrP007S9oc6aQoHeleqDCaPab/TGYXD1floygqbWc7nNog7kCEtwlWUtBpIh6jSzOucmDL4uWNQFZT48RCiWL/OyvQtEX5LH+/Ai6sbcglK4C8IyMNWSi+7GK5og0llS2mUsq7W7cSNz0KSYbu8sBjA/ZISA8hGSnHVJXNaaoGaAbpqGpMREzM3aek2IL7LpX8BhXxbWDTLOvx/UI7AhHXpV4LzTrS8DelmszJaPa7Jr5sjB8lhDPIKCtzGQuXmAJphizV0/wM5V+kGLSalYNbQc5Ntnz72x1qbOHHqOC9pDwwINmT5slIzowRLOKJVl9hJkdTvU2RZYHN2psi0nb8QXrMELWCtEUD+WLGeJ9Amj5P/3EwGMP+NKZJIQyCMx7zLCoXjbcN4Z5u7cm0gCWb3meXNZZzc3cNb5KrWLplGXSTwcqpuGdHjcJRFWzjZzPiA+N8YDfCtl0aJ6L8Va9aiWhP51LdmAXRy5pfEF/DgsViCfvmSVpyeXqFlcBzYgryiSzrGOZzGkH5ksNysyrPVMGPCCi7FtT4s8RpieIpRsUToKW+kEp0+Y4mCVsmybbFnLPjPicNxT2FVK4vQGp9PTymGoxcI7BEoyt8GEFIomJqbV80quXVhIcTjxr1UQCQNi8m8g4E3B6znFNDHj5ZJgXuNtLE4md6X+rRv4da31qx9jFQmfwCmOlnwGWjGwmomXkBtHXPxuKlBj4MHGA2tGc/Ju2uBPiYomQzJZjwU+k7Dfof7vwWBqMEkzLozQJf4cHdv1tP2tzVssyBMk+S+HtiE44WTU7NvdzPyLp+QC3b0UQm96f7e3lyRgOMVvrhX1RhcaP2ardvHF4t7wLJxyFxycb2XlF1joPsE73coSq4cFkx/KZD+NZeoYIiFLuF594PZirqfzvYQtAbSnGvpGDCCw7LSUJKOxpqtUqtYOidEigMPdOs7G02mKHF202MVExYn96HaGBmGHUu4hhmsdcGDP9tk+A9C4n7+WZyRtswEIzQ7nfWg+ZGQVPwYAIX7VIVLanHSsOeFUv0+nr2JhQlORkTy0u7Bq0guJWHcHmgKjVWQgh1JF/ABiG6Wou6Nd51YfYZGuqNSlxendxB4wHgIAhy2f9ghhS1k9/X7Z0uwAbtfe0mzPJPIe36b2ekNDXz4HEe89RMzvwTxOwuoPjhqi1VFxDQo0XlFJZNLhIGuZ/eZd/2CgoMGpUQ+fst0WT9z1wNIJT+HOtkYj/u4FbHwjlxETowy4ayXRXfMsBTdndg7El0ZwK1psYk+cLetn8XxyY1SKTvGClbKr+Gde+IUnISXteGa20Dvt8r+P0kVjmhRjOeqMpa4hoy7MCMhwdX23AC0KctxBhbTdX0UpQr4swAtOFSr8D41HnvFQdSk9s9WKSsyVYErvlf+W2mE74TpB5bys2mmZn78HVvQqF/TwbZdb4CJnR57l+v76sEEKCjj0eKS80MiIEYVB4ukjQQTLmQaJjoEtccCmeTLC8b2iVCZ+hdagNlzXuQxYnxb8slNAl0ALui38nCcq2IqGvOsGIl5cky5L/8fCeyd9oIVMUPlG/BvGFfWZR351l4sbNVBO93cDEVUGdkWhU3ZnVu+TD6nlE1tNfeo5r8cApvmXwuKYPgRh8+lzyvjhEiqIH1zOnsuKF5AHbWRuCHbsgpd+dQZt4h9l6AD18bii3fwPNFJgT3b+bEHWPQsHtTLMb+TN6XyKPs3qym8jybmf2pLBUeSM/u9rWMHI6PNpgt9cuaw49WvmH51VWGzqw03x+sdYqg5WRZ4hhc8peltAyOtPVozO8u40FggVa51QrIxz+lxOaDZf2N/DzlaZa+ullvcmZgWJ7ytPOvefbnLdsnDcAmiiVCVkJi0rgWK5bw6gVHhKn5Ju+T4najESMd8iIZ1S4F+nQFySYcBasFiRgdPkvs6rYR1WIvS7qo1xEJFG0K228dnsmTe/CWEdUiQ6QVmoVSIy3mVXywPJpEt6Sz4aVglIrrrY0iCwM8360D5O5OOnNUvbMN8LQHVg+h9ayjSw1c6GuinPGkRO2Qnf/8Q/9j72Oq4gP3wj9p3Ek9+SkysY9XV6S5a2uhd39mPCsQENupXjG+GbxStmIWBchUhcmBPcG58Sog2/3tZlIZzc40Iy6NvTrhv7pG3j1koK4+0WS8Mj3kuABgGJDMP9GtWNMAi7gYKs8Ilwtio3tZ0tS12VKwH3kHwIeNQRFTe66cbCutICyGR+k18zR4zWwTn3WKpdtAZV5xDnvv1JSXksPOvq1VkdFCLt3ykWx8EJt7lm6LZFsGNG657hV56UbM4dhmfEdL71HrcrcHbZIAN5CjhxPX8ueN3Y0ijkKOo5LRWB8Vrk3ne9P7Im5O6oPSNvRG6NTzs6bx/J42LgjcVCUAVA3JUhp783MVhorIPYBR+2p23XcPTAi1v9wG1WXBxJ80XTSmoAuY/AIWdwGieFf8BSBg+54URWd6Jo5WZFmsxAGSgOL1NJvkG98Cq+l6jD5Fuwg3iBg3wdPcSAE7G8S29IexnHopjpZx4xoBaycEBKSMyP2xaYhEPyiUV3rh5gDq/R++VIrAW8DDMlF1tvdiMdS7od9fGK6kDoXJM/FkKT21iuc16FaUDvNKfDQ4Vd0mGFM+3CeVLMa8DZ5oLLqs6QzTC3WNl5QszzoiJeVXj5yXJYnkxHo5AOSQvPCyTeqbSSFzZmIt8TT+gMw0XdaU78/ba2ZSmisj2aOlmBFGVe1I+gZb5i9evoVIaVRxPOiRMNm5PyjjxXyDGiPc+XRoI/02QUNQNSQc2iqseJeOcsPqHTJ1q7ewCZQLSqtgbe/o8IgWhyQp4r7molmxEWQrJ0Jrc/z7oknXo/3cZS0dGaeMTNH5806/pXwdAXk+J6kam9JxBtwwGuDQKoUVV5SK2q7bqIaTfxvTxwh+jVg5ikr25OKOzG6EJIys/LGIP3JK3s4KQZ/zRYnP4iz9khY+Lurye78Xqc3ZeVvpsNHYxehVE/l9H3oJmdMzOhx3pMIlWSL03n6nhqpBmzglWUD03Sh88DQPWaFVqr3F9vgc6A29U27SqFjhAEeIGeYXD8HOTIzzkXIlYXTqgFU8fuF+s448UfdlmZvojy7QYWqzLEuSczKFrCZwVqd/BGahXk77DAQ5jwcoYTkLkMVxvieht1x96ocRwcfg8LvQ81TvUKYDnaGqJ2K+rC/9SzH3eSOxamm2gwwASByr4x3dW4JTKLWCxjagAvUfU+vI3W3dGxK3+BNPZ2dTAAAA3wIAAAAAAM8yJkAQAAAANWHichv/Nv8z/yz/Gv+c/x3/J/8S/xb/IP//C/8y/zT8+6pvjKqnkOJOj2MDGVmpmNdhqEJmRbEtHJDPqgQC3K5FFSj00sIEq+5nLo5afD1d0DTTm+86Y7mpX00b9gdzuWwYjt4aPv5FBWR/4lYXxwS5k9V7HY2NCRxXMaB6kGdwfMb8GkCWxHiNAWrXxZhb0yIfpv0xXnaly4tSfejgyQCdQACkp6+qh4JzZa953NFXWWwepRARpcJihc2eFidKcbfFzRKw4TUAS4g3idVwsdTeoKugUFfkG6O35VUYn/XNwhlOGEgPkYEpRDaRvWjBOiDjmLy8EsoNATfiKTVeyxvmImRQhvih4LsUFsj9L0xvdJPuB3zFg0spEY2IHLzWPMSZmq9gx5cKjsnvP6hILe7s4vcrAKpcujPkoc8GpUj6xGp0s9AENNAMIdX6PpKUOyVN1A38+1yQnW+oFn6kMGkSXIQdbzdP+VPzOU/IL8JBlW324Bd3amxQ/akN7PKYFFjx+qDG1nUTBVtg7jkicIFrnrUjMmpLQFrl7ORYzMLA9GN5yjSQiErBSfi3Xj68gLCTejUTU4qlnvQiCgU1qYHXwWRInDEHdETvxQE2GSGJx5J0DY4ULGKaumR3Oc3j9nllHGZy+oa1vMD95gE77Akh6JEoZGsvmNFrCaDt2NpQiS0neQMkfb48e/gIJMc/LEZ7LvOnpmnUBYEQw0BkUDZGkyyjcRoUjd6QzHguwm2yWniuw2Ag4YLv/FFyM+Qs6gpXS7wlr9VVwN2IcxT3idejAFW7njtXgMPDEevsTxGcWGBISXUVEcPXufPBcxLBzxgeAFgaLI8HudZ7tETLo5kndFlA9A/8++CoqvfyyVpQvP0O3AqLHzEc2egt4nTq+2vJiRZtGAAKn1nZ6chwuE14D48I1HRTPZf8/QrTeo+F26d69yxzuV2NxMxIYWfIexsEe+8/vlkyc1Vf1l8Rehb5ReWJrSIRYSMHxO+sJgp9SB0QEOQIPwaio5fQP3bLirIUsfzJknGuU8NdfmGm1yMp03wTawqwl9YR81op6m2kXeHuV6nyuXn9wJw2I5as11oLN9bl8FFn7cuDA8VXcPrxVNe+LI4c76swG69VwHb/JqeT825YOfwym5eXeCXervEjFAQx8xUl8J3Q8ruFlDwmoSjFW/EaoqMpWoloINSbzhobXcqA+74muKeLUbfl9z1Dr2IZJzoMTcHBW1e3/8BJHUtEHy350mleJ+UPnKOUD/xBgthwVwZF5PR1yRdSLNyh9iIG6OdC4hoU0cGZ57rlSrvJC9uC2U0uwMVxhFHe8pARDLDD/A5CzLG7Z969zf3mJJp/qaZL8lQwEfdBpm6ItKPHocvBS3iPBnVKWCNicGBrAC7kKwnMAOmkoR1LwuKdreNZ6NoiL+PYGCkLEQWaneUSRNmrlEHgrpOCyzAhvc/t1UOJIWj0rGyj1+o22WwgDBcQqPYeqN1tT3ewp6+ppvrvzPVaF9oOo4LAMUNLGK9NYVG8bcR+lupEgEJzeHgahPT/owg64nFQmUK/zcPpvJnrSaFF17i1pOY86AYTqkOMENXRrBZ2C70QwyMkEanKJkn536MFG3bNDs+Ozy+X96iTNzern6l+/H42hwa15w48YQU61h1Y9gunsPMlgPA9nSIK+zwByoektfsOfHQBmra9URP0SsUQwo4lcsVXpGr37ZZ+MnpbOXI8uIy8Ark2YImuoRp9wXsilQhkFUg7FSTIN+Uy3LjLBIS7X+xkUvo5TZws1ny2EgzblxsDvfemHqwZqJFPT2iBXen7d24sJMKdTD57hORFRAGk+FZoc88pUfOygnlsEwaRBQjPxLzhfLlQqdi7xLxB1ZqUtk/A8lkX9efthCr797W15sdih4ri3Mrn2UGSMyLfsxbE7EjfXfl7B6BEKm1rIUnTDJVOTh7BASlnZGw5+UqjX2Z15u/o8kJF5tGImKvH0Qyshhenhj6YWC+MdmSEUn6Qsr5VgPElpNFwmNq+KyXil5oKEgWzWyiM+38y3kXUwNoXnAslGHaWEcDNM9WDLnHjHN+ZNBrrvZK4i7vY0qnUx170O7o7AvdLuQQ4GPKXdfKeTkvmcmhQFyilwMlRgugTtjtcSx8sb0wgJemgcIHlDm+N9+3qyxmcK2qWrSvNAEweoRT7mxw1/FLezBfAm/rJBslI0tDx2zsesFC5CyuZ0798ryCZjgigYU0yde0P8V2avtwrcesdeXe97Gw96mzTgn2BknzygTZg/wL+YMyRJ/YkeMaWHhoi9Esvri7LnPdOOWTvtFLvE5CSsd907CkQt90ZubnKxw8OTbqsYO+5Cy10K7qOQTyUaZiY5iAR4Igu2bJmtqilxnUbR/jK4LuDqtPy1/NPJrxZ4dhi6SbSsixRgXjqMY9LHhyDWSG7oYvhhakQ4DayxcrmoOUdwube0TalHmnU0wrS6EimITITy+KTrYD6hFI7IXc9nLN+kef1HWdIwFtv3+mp9S6PDfCeEQ+bSuDKX+8WlAw8gri93txa1Ppzukkaqy9fLrCZ5aSTXIf8kOoYEplnf8XmPNjScVRLouw6S9tS4X4M1ulzVxB7q4jNt0AX2V+SrmPAf+W+vNv33B32wY5WFNIlpQEYJNRLOpA9kq0dDayIn4XKjVxWVyuVobBfMRiUl3vclo40LV46S35W9FeVII2yVkpMQ9kpnEbqn/VhPlULhRku85eaW9WS+MRk7Sqcv8UjY/JAzbItuxdezbw5AeRAU0OfL9yd/aZJhmk4d5F2JIsQgH3h6lvCjjP+K13p+kMcSYzvSbKsjnUahgsWG1pXMiXuExWTwyKqCcScVN94C5gOc++EwGr8CweQ/GcgqwtLWj/ImrG6z19m/oDaax7ser0uDSUpZpvJEjTZwxkebN/fjXy5hUX86hp7o1pIgXlJGq65CZPR8ZgNraj8Fgh9c1NFJqidpPCKMx+2GVDiHSuzT7XzIMuXcwSBOJohtR5KjGsWeYpK07VPMR5mE1OscKynNEctnOw/+yH/q0gptZ86hHWtBw6K2XDrg55CzFCxeZTT7kV/RsyFlIBCuULsu77RHf8dV4ga+jgD5EFLqBuckGZ8jwHHLpAhwe6ZUNOa+KlUnm7ylhumN57fXIx9nUESUNMTRk+3SHUvc6jKfKgg4Ixe/b9rFoGAg68YoSx68rOOV6gAZe5BZlUCX3RlQGPkHobFImVk9RZvbxoD8mH8tbq++y1y7eft0z0FtOp/pmprfZ9WZeluGFvBR/vklBU+GgEDr9D4BYLhUGPPEBVTMcGcoqejXk2EkED8QjiEYPux9oxXiEhYKh3nDYhX/eS8LukptKSX+6WkpAwhV/sadSpwdb9wzsXRP83I1DjMq+/5IPRQvfK5qm9kx85bqmTWB6qnXEPF/BVdapTBwS2O9iHHG4Q0UFZfYRVLo0ZQ6h4KKD5towXBgR4F1cOdIR6SFSvA39RPr5rtIXJD3idisIZdrl31ufGabXGNtAMIp8KC2tiWtBz62jFMsEl+BC97WKp8Q+U+7TZ+swd733G4R+eTGabFaQKln7mZd7PWrtvGHFFZjV/dcv8PAS/IioExIaZl/xoLB5aFn4bz9LFj5H2hWCnKMHnc444Sv9pspVeIQPG9ZbSqHq+pV22qdWkAyQ1cw96IeGx8PZDfhrJ//D5hgEczVKItDIv/uFSQVBMG/VYdoaRJ0pCTNp+rRm87AYVV7a6Y5zCd/9NWfpaG892K0xWYrpbJnGSRuxoD28JayFVRpIRiBJ1SnN5VAdwIdRjo0VfsNIJ6C3ffwxxStn8Hm9SJIgJEW3loJT+J67OH3N3lfwH3aHH1OPkLhnYKFW0GXXbpYkLDbCijqmWtNSfiiaPfLp0zuXSAwOBs5CzIz7mvDt0jSfGaEs4IFU8UCB5MWjXrfrIrYXiwTGUvd2cGt4mKTwnFLXl3OVX29Fbs6Ut3U8DLUyRvwPHdf+w+LfljJQT4b2W2cZICCRotbE0+jZb6CkQlxysKLCoPHqkY2p1PCpjhFbALk14bQEDbnW9z8wYS7MlOf80Sdlf8fjI963djzUaiNr07svMK8xom/19+f63EZqMJooDMLqy1wVuKwQCNOc6xWlzH68kzB32O1ASgAxaYsXyoCI97/+UvzMiRycp7cn3hoQIzrqQbv6ByDp92ln+VozrtLqiKb2TeDxwROjaVxwKzMeynOZpHqj5E78S4yLeuqnwHvXZjm0EhkBmUAf+wNEak0ZFJbY8NBg4k1WuC/TWQ82KojrcmiK/VJHbP0RXuRcon8sPEHShAfsJTMyaOLkKDw/ExI75M9y5myu/RivWomqR4xkj/p2ITOh4K5UwtKZgLziLgKgZgr+r2h0XhDuzy/7SHVR87H5UtzPSePDinD5eHT+IefT3/bG65fiRaquOwpyozS7sFqE/iX1LLvhD6DtzyBeM1B0TXGLU2arqrPS8UPy/O3vV7hUEByXZjqYREqkv31aAiXg64OSZrXq7Zia1xSMEjDxNfRmEgjwf8atSeHRDeR8bNiPwfZ1UkaHWSYX6Zbcpep/3hUaDJpIyG4zBiXT1hEAxgHEhH6DuruW2ihnSTVy2geMSEyslPRR0p2rGthbKPMX7w3kBgcngRok1V4yZYYloSZQzjSJqc7MZB8ug1VagpIKCtCgy94L6jdB1z54kEYUN8u+wUNegGl512xEqzQlFA6B9FCdQUbDnMFPhVOUHNDyXCagk9hCwp8ThgevA2glVzyvxB47thEu4yt/pDpLblxg327aHHsg4fSGjj41q5e5o8gVNqn/+T5M6Gyt3ybveWnMue5WqI2k2PPu2678Dm+1Pde6BivxeknnFDqZ7a+P+8KEMOJaCpjhy5l0zAmXN9Cut5EHvBFQJPlGlcwNHVbZp5Ea6oc36Uo1tQmDoMN2ghINqAlvFRO35p4VeaNMmRMQn47Mwc6D5PYFCFaYR4gqID0nSlunkgOheq4iCMqHS8ilhyQaQS1V/nlhuHoMJDTDn1ihMJJIo35lQE659TqiWi5x1A+v98mH9ih1YaSA4OhVJBoTMjrIlU+hUs09CSuzINOsnl23U3hDl/n+Ouyw64kNeqKfIYrOVJD1qK+LZD5ATuEYYOfJ8WokuborluR9hm/UC20OGDvmE61ZKvZU+b/AbY1DpS1sdp3SCLmdtobKZrpWqcCMeiJgLgCfRecyXWJ/t/erwusVFfy0ugJBVWmju+vZw9DA816QLHXgW6l936HlHIIhT3DczwtI/B1u5Qpt8+x9ezZvS4ewwuHDzuP3jL1XXKkES9nU+O/7w+DOAIBJCF8/urTs5z17CZ3LLmqUa4MsYpGW9DxcAsCEW0b/CHfPu/iRiO3JpRMliXMfHlRuT1Y6+lJ9Ik2vqHcNYH0/JlIAgwRBMOTRUNBBumALvYY+NWR5EH9eQXz0u1lbfR6FiQUcVrwVkVDWF9pyi+OqQxtdwkUI1bQwJ48QTi/CZRZOzapCXysFLwsu2V26i2ljNPX8NQuc/hdBw+XZYUrVbLAsHu/WNo5YquIUtz7pS9q8yp0sKfJE1ITyHi3QxkR09nZ1MAAIATAwAAAAAAzzImQBEAAABgufBzHP80/zP/O/8z/zT/Lv81/zT/K/8m/yD/HP88/0L8E/nM6OAFGEqnTCecW/UH5KBxCp64d2fn0xaRe3mHEMy5XN9N5fT5qiWNA/NHL6gW/8MutxsOSkGHfuYzA1DxGPDOuNTJuHatyNMdyccZbNqrY8weZlELbY/ZTio4tkHOsGYdYKqJuQWEFtWxOAD+j+64VelLp3Bp0UXD6ewEibGuQG+PEW14kG/xdz1P8Z4YL8hMxjpblySviMqw+z8OyjPKWnqDoYlwShAWLXx8fr5i4kQMsAGIMf60wSqRAt2LpT316RGn3PKZHnd9swtUIAvb68HsZ4RPf6LrBUjpJhHMgwjU6/ze2bz9Wq05+L+8TN01z7YfcdBU0TaxLbah4ngaeUJKUQ8F/vMVF/yq5mNsuj0/FsVocpL3bDrNpBrhiEkMRNoUnJplU8+7vmKRCU3P/EFl6azKN9E2RM4agm2M+VD37mqmhFi5V8Cuiigh7UWwleqI6pOUwW9g9vx/P1nBj8bsV5Sh5VTHxNDhS+iq6kNn5Ed9HE/i+iXCeW5xUjndPKsCkvv2I1yNhn8nqUVUxA7oIdX+4GPOCvqAVdIt8MRBRw7S8/OYzZNthm6elPl/2AtFwj6o21OjGfbve6NqBOG3ipvg4rcWNhvxn9E48kfRR67deGP0MyJxmQjEgsn1lj75fbSjtRqTCRQz/ST4qJg+bdSXO8IrTXJZdxfTwdE9BS+q6ME4+ukRy6kFzzT99ZEk1jFc5qLBlmYpQlUpcUxRxVRfMODoplsulo51ZW8XILzUDYXfST2kW5kkKCTZynaKmB6Vm6d6yqvAfjfrcmPoJ0Tpscipg5fHwduYqsoa/EI4ma5NTgigiMPBYckTVFLkw7BEeq8OJIENCfxVvE324egnFmSbyWcupf3rjbRyo+X1HjJtPio8osaX9uE9+htm+UX1Epoau/NL3rzj6Qwag2ZypeEhk3TtCv941pz/QdYxwP+SDsnRlnITprW5iMAKq6ZvbJKvPPPpV9gyzGY25uVXEVjzd5Mk5Cv7qQZiITfDDzhb/Gys68EviWmMMEZwWG2O39JfczHtKUU4CDGSQrG5/FGiIgjdb0nBUlIO3uXQklaClqlAZ9QoOBdSBG6qDYUGdlmOseba5Q8DybuGMG2XWT3JlCdwsplHbCV4BjEwIur/cj/z3Ji0IPElVqjmYkQ5pd5R2dguygqWaJJzPXv9Af8oFM4usDjNyN1r+SKrUN/SLZG5VnVj2ujVwlNaYvQRH3e2fjv8FdKlOkIdFwk/zd2RSmcar3ojqqQtJRihrywF3qLKwu2AdyW5DPpYfmc+IPPaGXZ20XudW7x2ae4dUQzSRMwzPNd6kMF5tO8TSE4gKHA+ei6MsAzarx4nDcGTG+fdhNV/b5MHsjKQOY7COCNHDovz0M845pVgDLKWeykxWtvTXhMfasP858fOw6YGzOcKEahJQmV1zqFzEuJu+7j63XXBSwajOEgHH4OqSo9eGB0gepYQXSL+xsfHNDbapNmnOfRw0fPWjZ7kfLiD2MtudgMu/fB2/uVzGcTwFhl5zI9+P878cIdIRe6t4n1CrckRhprUXpilfDGT67glfmHLBSlWsCsXBvO+71LXOyPSDc35C28BWYR0PyJ5uPHxYMJBwsxLNyBCksSv4UO7WlIZOP1Ej/D8E/h4fV0zvqNbgGCiSFufbVOh+E8dWR4SdoLgjkQDpEJylIB9HjujNrancsObl7mOdQ9k7AZ8YHx2q++BPiAHkPmI+YTixPxm7EmHurF8LEAz+oxnWzBPOcAy+HUEEShf85CEbnSkkYMMnmKO2IwbblgeZE4SY2ADzNSc6zMXqUZfI5VJA9PNvMauDP/MkyvNK+o8Qjh3t+nwxh316ILM/5dJLn2SGiwDghIBfcv8f+KkYZWYtBehoS/5KxGngieGEJr0FnNiFGMnaOxi1kp5F2Ij8hc8iwLdgpkIcRpdQsRfJIjoMW+fN/It+KGDuXLnrnBetyoatmBA0Ibw3VcOHEB7kclRqCXojjptBc60ZZZZbls5TU36YAoKkaBnbQyunBd11UQTeu1XJg7pZA7Xw/ZP/BOvbLoQPI8vpRBUsUdNOfjB60Wmhkdckv4l0VsFwwAKglP44xXUqB/8BzaI96lyz8uMliNCCh/bqltId3wRH8rW4hWZZwqP90edAEgP0ceSjinHqxdm7rDiBcEIGvUAoHiCTqQhKV+udyxqLBPo3k+esZc1zlks2eOG5h0iL/jEl92NeVTrwQMrEs3di6xypyUdApVpt8/clSXS+xMoyAVmDTGXE6LWS+oI9eBmVvrjlSbPafQGo2LjjgQyTqJTGI8yTLYatN1sxefdxuhQhEKZOmmqxHna8xsGH1PEA99ZhgEmlEuaWr1laW7ObGXNRzRvy2roa3IXMhUgWUAZdDOOxYxKShT84obiZIQV3WlwVc+/CVhqHknIXrgLUvvDC7fLn7gYMPMGD2BNyvwAWVdSB28Ql/hn5tt6epCi1yUbyWrk0bvVaUETSBKw1AKpvwONkfo/HHVZr1cdaCfVnVBH+PcDVezHhitTpxNiRjcDHCnMrPcGN0k0qL18Es330Cmf8zIp/A+GbZp2mf7EpS1e4t4esx4gMlEqPvav0CLklV5vb7wUUQpYJtkF6jNykQutWnsIDzaeAhaYJR2TDdkC50QRZa291+bEgjbGNjphNeJ7zn1NihahrE0VVfu754HNqUulbjUuXtfLRBsIfylwhVx33/UbNd08FXG9KjRbYwlMoan9vRipqQsmTf0O1iv5pQAVFE9/O/DZ6ecK55E7xjlnNJ6CwyVTfpxE9tVZMIDlZclFqVBe8YwAHDZRqBhqTE/wOFgsoYBzeasyPvXS9HRIm/kosHq+0tJsrBQ1/BC1vx14MAkiPC62sULNMOUcvm4djEBERs8pBVpcLQI79DPGawClk+49j7DMvSwrk4llTxJzvmixBDs32xJcKAFWIwiKYgncyvPGC/RyM4Jc7b0WhllAdy2MpWuRkZU1rcdhwPRBZjk5jo7WL8HU9UCOGB7twOPLLtP7Gl4Q2Mi5rt8MJwIx/XKixELefroWCdBDdFG6ieChPAmR8sjYsIGP/dkRzeiN3V0wU2vzaAgBKk5l2QJesiL3w1Kg5TqMga5adMXg3bEcMcbgYjhpTOWF8LooCdlFcLlTInb+hw7UZhDKRp6CiPs2XqDFFBS+HB6/yEm39w5UBuyi/R2SwHw38TVs5FDggSEJNvBX/EgQvaoJKWnSoLyQaMLXYNmuhalJFPsfqpWLMRvoPKTjboVoz/xCM6fbGfdObOGt9oZvhh/Oa2b+7vRbBEsjU1inpfyUAEzbBr1qOb8V6EOAgSIAvd52qhJu2Jg/omgN3DlrpQHzVu3cuuxKK5L6oAqcQDWBDbry0YP6oF+TqrBXl7mpxetFFRfk+lOEanbm6bvZfm9C55vP7ID8V3e+3pM1uPG7Ofr8QFRfJ7QpvLOFV7uZCmsussYliDfMQ9xY9ak8Nx8b0QJQOv5R3eananHRr7mPawCPTMtmPlq79AXBsX435/G1QlFTuKsjyaWczbOWfCH4jcHALA2u1nxGbr2+7zu5Lo0Fw++VesV9m6Nw21lx7Tlg1hc6O+eqjAo85D7xkR55WjM68fWvmArtVmYqE3Gop6KtCX6hfo0O9FWnEUnYecg/KPTE2taoiVz8E7suF3whW1Y+BL3Y+Il8AxQZG/bFo3Bx5277z2tiaMNKV8iF/qPNMpn7Sais5SUNRIrioB2NomRfJyTCmwxcOFdO+ZunwlYZD7uKb6DLxemBtHLkOpbyTO9QLBdpDhiOp29apoE4Ipx7/tNZQgqMcL0Jy6HhSvFQH5YKprbVIelqqvM4hml0jaDYTYIkqM/1ATcnB6/HN/+5p2YKS+70HUgpCTj+IPYzG0/cArwsAdnIsrlsLOtKqttn0O7SjEA+3uLHwEx3adxC/yQkGwMt7Z45pBzV/LOjhtX6aO33svUaREG3wuceklNOFIJkJgCI6dwQZCRLK7yF+J5eM5N/XC5NDN2SAkO2YaMGqdJe/wL5RBZwsLs3c5OQQwz6vaTowsGSJPwUS+vykKmy/g3DkJpoctClUWIMIoo+SZLhGEmP7yiwuhGnXIcikQ0B/op9VFzdg06tzIPCxfOSe9UgsvpBeiQRJswybwqez6KoxEwYj78MxJLYqwwpdHxuNFg0tjM+nzhNiYg2QJS6N8ChaTZdAja3ouAdBe3Lq47w5bFzkw4w9eCafhMn5ktr2uDB5bbg9RCvUpp7/Wt+uFHZXreaGPx3hdBi1OHaf7Yxe1huDcEgGTvcJ/r/QKh0MCrEyOFqp5egVRfJ4iavQ5OA6m/PKnX52C28ocGd61zDPViRkUN7A5gqXTT773CwKj/xudG0Lk6dKwIIJjPjbSWbCONeX+tA7nN7Pt/G99SkdRZZJu4unh1AbODf4aimIKrF+c4r/FPFrC7sA21lKX/XbIYkb7PBNS9ymxNReggrwm4LW+xpVsy01S4jcOA4iZmahYrMdUaLy7u400ruywRPGxou8KQ1EOsy5fgeO8QsW/SqpT7FNBuy6KI2biuueOFLV0ayVVl2PUVjISoW4CLjc8g4Ef7iTdCqrPDb4aRoWOApPjWCMBxlediJpbaL8TcmfWITHgrIDravGLjq9IGKkZwV1lXRQin6sL7gkykslnYUrisN/8/o6QDcWo71a/RqN9Vod8InX04eMWSz5Tb2uRi2Z1uoyCYQUQ/sF0oIXSjiK0tPfFv8/GwVQLSZW6irp3bAs6iCE9MQR7eD4N1cGbDMoDPF13q5E/rCq205fzaKHUjljcEHmti4Y2o7fvyQDU+4aA3HA8DbKYXZ4NIiAIm/tplNENrL0bslfG3rwQG/gcMInWDVChv131r6OmEuaEwnwWCQd+Agae1OOVS3Zuc0MykvZzsWxRG1V0Q942up9Zk8HKf6H4EsSXiaABsvbmi5ss61DqOrpdesTzd16EgNhKvWP1elIUnGMyv3SAEmBQaiPeM8coSt3botEUd7LKlysmJ6QXbMfnJM6orcGTutyovtzVTfAR4T0h/MtOFEMHuuvcoKizP+qDXQffcp0HGLslZQYE7Jz3b4NNq7OIbpda0PG7GqanFhGZoomWvNQw9w7mQCaEk/u+w5Ia9br42JWNm8P5DSoPnf93zQt1zGRhzDQUh/jpnBFMHF+Vm9wN2a9TwbhEJ0cavaK/xMSCe75Sr+VvZSgU2GXciiS1BKbk8NNBybQPyQ04i4iKIJi+fCU4a8qbAmgBZqsEWilVUVhgQnNHPH3b1o3kIyhLVGLq3UlLCUBkQeOtpbhDdSC5atuTpWO+f+KfxBim/B0i/GIRTilwd24FI8lUEC+C7iU54dts8xeCVM6zOv8ewlhjbq8nsFZUSc+1EXpV4yu07jIpQ44wzhNa3KTTW5CdS6OEOFv2VEo/AX5bT69C74UZqToazb/SLepyEj2pLvZtPdNEF8vCAGchu4qRmdj/1fZWN/bvl/1JDjOAvCMihadtDg3WhJgsbJhPKViaYYK0KkxUPPV9lZfQAJMYe8Q1SU8xAYJOdZ170hZUpcj4XKhOwyhplHLYYGaUBanV7ABjYhDjxEs9otgBoNRVQKLT6eEO3mz3Z+wlCFhTGPrLugAczUH+dJnoKE0RHnl9oMhHx1ZO6XyCJEwE9nZ1MAAEBEAwAAAAAAzzImQBIAAABlKhBLGv9C/0L/Qv9C/0L/Qv9C/0L/Qv9C/0L/Qv9C/JC8hk9S8gwem/QT3ID4JVKa2UiIfDMyo/V1cfJ7erhsbMeFRpotmtw653VH2B9xTJzw+ilU3NFuiC8MIwPz4VO6FjmKFrvXeAirRmDatxAmXLS6S8c/bC3juYOm/FNfjAx9JY8VEXPJWSkZVx+kxdAZ9g6yBcF7+IdckBAn2DxfeksH1IC48CxsHJc5xmE5UTtiK05ftJN1Of5qCh/yxbmkdDDBEHhfK3nRRTvjanennnoGmJ5tYbENOoUzrZ+AexOpX86Y3e3Ok2mfDtxBCXMix2dCrGMq680u2Yy46sVilvdQdEfE1frtTckgYe+IutTpsXcDdaXjvgsBlWyJFqlwoJNbr2QWfhdDMcCZmWgZ5V4Fq9q7H5FpxPE936d1HlZO5j+e0SYunI2LnN4M9Ja1l0dGs95fOvOZ85C9KIPC/BP4daRjYmI9EOLf6LJUahs5le8hyfIOqDll8MnbTh6wGM9fbrL8LvLP2lVDDZucrpBfkxvvyoG0fxGpIecgzhtwvrrcLCy0h6lgE1NkeZDAcQQgo1LzNuEVlipIigt/pVdTCkwEKKndrEFgIDuGBr0jPciVNG8w+OgFO06UaOONkpdzPP3gOK6kpjxE1rb+SyO4jCkoe5O+PiN5TbEFD7x4jlX4BQgPgOP8cjZkVwSvoiAKaf9vaz6Unx+BfzgPTPLWGrnfqZB+X9hNV/LzxZW4WGVXp/5bRLsLkTFL9k6dCxlfkLvJuv0CyICKwixs4jPbaaZaNZ6df1Ckteqgsh+sl9xv3fVZ8/oDUDQOKnWJKmuLVV5gZXqXgsJ+/1dnocZ0dZamh63bONIMLPPDdAWwDvf7c8MGIhsmJaURmk2T/AJLShY/564/qrRhlfWE1u3sC22WZ17ZteOXAhnc8+XmTWNeuOGlE7qOPDvrbK4nG+aVJfCn2OhWGYbPw/P0FEdrRk4XMFJaLWf8ntnxe5lntRw3O/UreXYTSbLGhRzodb+uOdyoZlmwMudjZgv+WBIHBywHSDDAEUCVZ/qcb1xSX2FRK1TxWH13LFmHnYKv0UW38OgPI9QyLo8MWTmbZhGRAHJYXRTz1YbgtZ8djXIWwZGTdrTs4JD/5+IWp+/qhPXxBx8rncLAiUtK7F5g9DO1/4k9Ge71P0YyMVYFODcSvfA4/WE1UvT5h554fpOgia/rWIVjTeQ+aXfXst56SnYMv7DQeKkWaKxki54mEiH3ldzGVQtXAoRv0rvmWpc/LyXwEsDIwgoXmNs+5Iw4Nmsyfv95gadNZNpGqVvpm9Xb/Pt7aE2ZazaSCw9wsG6F+VuZE+puBvwLvCVFSzBI3GFiz3lNYLK3IMS+1zTlKwe4WVSKGUBoP243mg5VZJxYLiTyZcCGYcul7cvv1Ysk6lpaFCRqTx8mBfO0o4WDRM/08/5gvkfO8pbfgAUzKnZUGU0FYFakjwGfVGeoyeOQzpFv1crJ4N3hzNhTACXG4ZZfd/zcDq3hm0bYt+GgZ2YkCoPNgp+FhYpzuy4Y957Ms/rNfhVwdFw1hdL377c/8xRyD/C/O11DYW1RnkQ0wseLC51MYzJUArGgzFh3GM07ajjzRC6mqMSPMv3ts7hjikMv4pD3gZDgxONKnHIDYO9Ood05qdRfr0Io8CxUu3tTNPCJYBWQC2fK9xhfVTFMV2c/+h5e57eahRGPzHMVbIlLm9bN9HoqlxXzDMSqEaqAKQjn/NLA0ACkuj0HnManaQt07mpLRI0E4lVWGyB9LiuZKtG+khz7e8E5X0dUTMK8hdzivIRb37jtNgGZxxJbDPLqTmf+fBFpvfHGPTBpva+Hwhty2tFsJZ0pMNdS+9++g048dK1j9MVkOf9lr26XCuHcgvUeTYUxhNt90xuTHghoZUlhqD1N7eB9HQ9yz0rjeZ1Qk7+YbAyHgApCU2aRZcnFF8soi90huUO12sVmmsjmUVmQWyVBPEoAlvAYkvZ9tF7WyNRE0azNNrIMrGNeCXK248fqFq3J3JfFQn+gOAzSOxEYqvf8AK72oKBa6pqfkgyr0++HM1uF0+tEyXqzKOQQik0zz59/DN+fjLB+jClh+T0QBD8GtE+V2mO6V4RYV+GfXBIw5TaoQIQtolnKQvMk+H+WZ3Y4FtnIrppZdkv7ibpl/OZRH/Fb9kgL4P9F4rTfU5w1kcC2COltFjJgKzcVlqK7vQUI5h+PPtOfOROAgADTQfZIrlGlbn91E6xyVt+Gxy6gQcDnLnqOo0m1gbcVNUnBy+UnDsUMkre/4uosAa4ZKOUIvLlFx/xgNnL2F3b2kMwRzOcOAZIFVqWLwG5EqKV1/PjSyVTyJD597ZSECMt41nQ/Da0XidsLB9nDEv02ch9byzS3K6AP0bM+yL1uVx3N/ED3KW9h1xAtwmq4oHSkmnTdG88zolkQgCZB8CCpKa5PcBDe+unnHBxtjYq8gyStzK8ghwBKwaIL7AIsvIlGcDo4fxaHh0CCR535oHHzVZHgPsgxIfCCCQZE/vRBHTCmv58Jue0pGgSbmM38q3N/Pd6K21nAfZ1y6+6bofF1KiVdVql44rKyisM7PQ9oitJE/OaUXf7jga2daPMvmWBuxNKiP0zST90cepE/Bbxh7HI1Hnzi+Kf1vhUyGSfHjDUTCeT9FMEkdyk/l8mvWjxl+Sx5rr7Ir+4YSJ65ktsHhVEFmG0xKJKml5FdG9ls4xo8xA42LPk/cDEXQ9gcD7/EsdS2xVOXWjN7kvnDlKSJYcs41FULftgYIL77AQdPuBnMPs6gc+w7UvPB6TGzAG5QkSD4Ls4gaJALa+4E8zQKh63q5hR4Yl8CNvBllwd6NI/GYDctKN3vU7RaoZljtBFhHIzIyk7h/woeQR3A+V+5P1gdZvnl9UFHGXPdwmzrVsdecqn4pGQ1LOxzhsXB59F6BXQfp/6SFQflvcyYrgMDxQqvt7SNU5ZV4bWiNS7SPmhqCLhmvq3d5DcQ7XlDunf/eczWbMSl39+IOYdMHDMGnYo5/AEIp8O3PmKc6FbcMJevbGuBUVJwsH2+qLgJGk7hR6vvX0mTmuzXjNZVxLC4edLBUL8+6kb9d6BK1NaiP8LbNZvyGnRDD7/LOpZyA47VDT3pr12llyG3pWHtrM21iLgi85ZwFfmUjSZ4bq9h5k4MLv7w5Bcr/QOK4pIN14Xa1LwjwdJ/u/VRt+UfPzsyuHULihbgHWQaiZZHB6ml1CknYuOQMG3W6xk9Ul7E2o2Sk4qMwJeOMwn+hpce0RCqKDffSJTUuAhad9N12TLgol7kHKzwAlMPja7H2n2qLXa9Sicbv28OIhjhfCN5OfQyq9QApdzVovHzJh7qpDCiJh4H7kJsj5+urk5EBxw/OWacEPHFFyU0hWEBT2CXqAa+YTMQO11lIDjvUCnojf7L4HO+PIFWhJU1oIUfaU88YdAkTMH1/PrUhTx3WtV8lW479hWSL+33NXyeeWJmJcZG79ZEKvvdwSNIGZJAgGdoyK1+TXI6qVzAQsjvhNl5i3saGUcs3Xv47SkaF9bIHKm/oP0mWv5yCirOePEy7b7KsqBI3Xxcf3EyTDnXVDpbldp6e5skAynFoq9o/6kWPqjgSlx8TH88kooUSqvEDhWVkA9alb2O/Jtw0LdcX+kUNzu00R1HDFUtbk/46idydIgr0uwD445WtWYiVTnRH//VjeUNkBThX1BhYJOlZ38MLqAJqveLaS8rXS9LUWKrMv3GqYK87qBVABwVi1cw18XQNfSSU43N4IYyop1nGkQxLvRjBS7rH1IWK5LKv5KvS8dTS98I/tj57TuEAyV/Dk3kFV3o/hkU7y2N5PNS4GFKyT5rZiWpkbjjjco1ssI4R9cUv7kGd4S1/BP7kllsz0KX1TU1yWFo8tnXz2WNvxoJ39cPSvHwI/XxnMT+RWvxXI7nE24y0x3yDlmGXxN1eZ0PaqoaLfCHVg84+dqYo1GEM3qSu4bbi7ffEo1V2P3zfzJXHjWWMTu6EYNWVVNMswzTs2fgcB8Vb2oldRgXXgR7VAy1ExfPzcmqrpESJ8cW+cJ/ukjM3oH0A5SM7Q5Q7HBmdAaK/ul/+5RT0RY9bxWCdf2PCaVOyFW8N0foKpHA8FAGTatRBpH8zFnVQJ+P2COfoEd8uZmHWQQQPlkBy5b6oovuEMKlbFK+OIZAfrU3KriFCPPbv6RvLcDMgq6qPoyUoEljet+N87E1b3L6RPAD0s/E94F7Hb48SyDKG61F6x/P+pONYGRStZJBUMrAnTyxP7wKO+TyuC0mrliTbYzRQA666r65GQAB/EGGipbjMiuE0aTdwP9KoduqTNadte6vC1ViIZ/NoqCD2SH/qjPZntuRFQ0IosRZnJCW4W4facqoA0nd3QKHp9TrjK/7J0ep4isqpQp3qpNkXWCfv1n7vKyBRz9qrmpQmKu7cxIZlMvZpvHhxG+b7B7KBB1wQnvNt8Iqt0KJnGdfUHVoZR/Xpui81VDBmz2klOFvKux1MNjEFX5GsDyu5xHAqKtlBrzL1PPuiEvpc3af4kFn1PxZOO7/ZCnieq2/q3Nefc26Ihcgx87iNubfMVbsAz3Y9Y+DU1OaOxcdckyjRy9Ar5cnSLaudc3oKHeenIzGyni2cT1t50O18Ewj3lscvxJsJo70brqBcXruZI7Pj2k3iuj8NHoZOwjkVlCuZH0uDOlEXLG1Q4oKknhu222nVykjGm9s9vgXbM44lTjE/D5g5oOKYWgM6ODrB2f0s2Thsmk1F6GpKChY9im+kvUoj17L/LTws7/UO57gpC4mSCy1QbLQcaGpLgFjQUJp1lwUCmfPiYE1TqEifT4mSlgGo1o4Hk7DVRZCoJvsh9ux7gKcZKeC4BgyEq/d97qDt4CYRxyciRTcEWj1wQsmIgMW1R2GdYWZ5yQI9cxAhe8+/uBPCzhBLezt2TjKYAZTsoeT1uikPzR6ZUs5XljKDHGsm3jn3w4y66tRBtOLCO62A5QXTmZZVEI+pS4mi3bhrlf7voVZTZtiV4kvEhac/KPVEQj+xrxyAmpt7D+6Hhz8lWiMqjuoKkO/sV4ObDlwwEeOSDl7mzGLTY2AKbv/+ltitOv3UzNbJ2I0u072ReEGa6efjMURymCx7yvyRrPUvpoEVuq2xx7nC4wsce3CHQIW/BP+PTi86x5+z5nI0g3H9ivUhZNHRb9atSrB8dmHoOQRCpmZC4qD03bflRvURRJvpzMBUXZoLwnR80pLMm5hn1r8JW9R0m9rzfeH3EdNmXlUp+wCZxNrSGPG1aboj9KHAtzT+Tnfcy7qSpAl13O3zxr0IdbjRbqUeqrGvdeRYRlzmew+qDSY6FoAK1sETsObJXEyLx2h9UqUa91CdorPg8VtCBcLqm1rKVzwxTHjN/vYrrO7cHaFz+qMxPu9h91Ini2wIKMPH1A/AWqfShDe3VU4e+Z5UVVqmzbvy4VMX9gL1wI8UzgyGp2Wfnb69ILkcFk9VUjv6/4pTM198PP3wQ5NTrfAIOh0K5jDFiDQqfJq2kK8QYe3nx0PUuni7rcJUbnWKpjHYd7a/3iDy1QsUJ2KO7YNA8onhsecWnmF+bJlT2dnUwAAAHUDAAAAAADPMiZAEwAAAIvu9sga/0L/Qv9C/0L/Qv9C/0L/Qv9C/0L/Qv9C/0L80sCOOHAy/P0DUGZEbAirkR1ESJa5Uof4Oy2ZFbwwtfQTilwScXFY4EEP+AW2TYfrSahE/OKb90pLGnqEOleB4t2/k4cJ6TaNdPEPWwluTK01N8Mfr9TmVNw1QV8GmmZH2XOcVqKTNTblgw2mg7Q1Ip0P9uaiWK7wW6OGhFH9D+vxLGEJXQvbxloBOsi7AAMhzAzEAsTR6dXdSQJAc0uA+Y2BxaJwidqDE1Ka+OOZQdgnRSD8VrYMZMSY7PyP2MAd/907kuCgufBeD9RlEJMZlKPOJSNHyLy1YlwRpBNLpGCxrJQFcLFYs6aTvWA8ecNGN3ENsPzBIZ1vnMsRWVYfLrB1JC4mJfiavjgcgb0MKwGiiEdsuNdmVDkbqRNYd8ekGLy2qwe2TmqZkb14pI9iQl/lV132IBKxmFvGFmRUuc38E/h7OPl2SXNvyWayewGUelE9JTJJ5k7r9/JSojkQ/rHJMGglbB6NViY4lDpgsFnEGjGH3THixLdabliDLJ8bFwysy7UOKZ1rKd5zm1fZnKyL+2xG+yzp2+2mx+ccWkX2Tybe+B6cSLVi2eGaesnO0a1P6iyyK/V7fkCUAl8a/gmWm0Q829qGu67laElcuu1VrZkz/b0z05bO1nRMuedZtgE2u3lWEQTMgoSHYSdAC8ESqgfKbbLXZAuHLF/m/KYBy+kJdl+H3ThjUpX2iFrDfI2H59t64r+EK8TxZqkrqANrk+YVKk/WoW9vMasIAkJeH5v3Ewhcf82drKhQprCeIaVLJG9xk1BweD5YIWF0ojrG/5PLc3JQz/T7AvMC+oiB2KbvsC3bjgT7Qf7JFPl3kpoLkj3lunlzH7nD1KMBslH8QWu2UxLvOeWmnwKQTVRS41nh4eKvmlMOQ3CWVZwPz+IkgzayDPNq9VqdFSVr8dLEtfswlbzWm+rIdcn5aiwfSRQK2LCy760kirdaKk1Bj3rlrtteQ+pfxkrGVZqV2lc2QkMrjWELfhDDTQC7d9q/UVuRrrsWorfsUa+V0avcs9GOWS/FdFNjs6K1A1XC+CX3c0YlHBaHOXjevGDdNj1exlTzo7E3CrI5Xpuq+nP5396esDi7AgMtqo8xESTyhdlIUTdVsoeAo61N1hwcdMzoDZgsQO5iNrBb1JGkOu1C1243ETTWOqOVjTgP14auwoT2NGV8EHWEd0rbPJ3HWRsZrTjGQottfsgH6EJTJIjAz64fx7kZhMiV3YWPr/GEiHZmpQ3a0O9chptzvk7/6ZbNIfOySP4AAHEVNJF+agdjbRL8QXoQ1y1FeJv9CiKW2swqYqtIRisjJ3vgpnUBOVgqsu+2nCoHh28ypVVbl2tPBZ0XTCn1F1Tc3xnsVsGG0+gqUGO+SLeVkMZbRbhvCbG+957mEDDC7Bjky7ayBl93gYZV32oMA1Y+B34HOgCAezEuHyCba7QP9LJrJPkpETTsDS0AQ3+maK6rERSE92dQd2v1aSCk8rt7nyrtNw+aUANilcI6TpVF15Ne7h56CbYQuWCDSgHshg1GGIj/2HRdG74EGtWYjt/tJQ9ZfUlXTrBOdDR/IOR0oL3ER1681m3T+PfbVU266lGy0PTycrKD3vwA5P5g8toSzwZx2D69LkFSy/EiOeprZLI5ok9ItTo3alyaM7LlpUHda7aXpzizm2DmGDNmqfBWz+21IBO0M04MCoRuxQSiD8Z4dBtfase9T+38E/jOx0hG+1eXw8I/jghtVU+fcK56e6h8VQ/lWDyACoAJ72g1MedUDGo0ZS0f9WJ07Yv9kgOM807SbdS8En6vP/33I07KpoIaNlLBhuSCKv+4opbLxnj/KOFefqTbeaivcQmB8INfTy6/1wLLR+ErINRDOltTlFvGa1YC18z1rTSF2Vj66kIhPs0Q6qQ0QbjmjR6vt8DwSKB3yYknngrjNTsjKjUTCwVi5YujMJi5RQUK9kwP5XDfc